Time,Status,Pressure,Temperature,BMP Altitude,Max Altitude,Accel_X,Accel_Y,Accel_Z,Rotation_X,Rotation_Y,Rotation_Z,Latitude,Longitude,GPS Altitude,Voltage
2015,0,86141.8515625,22.8799991607666,1348.50830078125,1348.50830078125,0.44815149903297424,10.638313293457031,0.09162279963493347,337.6318359375,7.977420330047607,68.885009765625,0.0,0.0,0.0,3.9739999771118164
2040,0,86141.8515625,22.8799991607666,1348.50830078125,1348.50830078125,0.48124176263809204,10.723773002624512,0.08201925456523895,337.5991516113281,8.000861167907715,70.4664077758789,0.0,0.0,0.0,3.9779999256134033
2060,0,86141.8515625,22.8799991607666,1348.50830078125,1348.50830078125,0.4386971592903137,10.719025611877441,0.09642458707094193,337.58990478515625,8.003619194030762,71.49321746826172,0.0,0.0,0.0,3.9739999771118164
2080,0,86141.8515625,22.8799991607666,1348.50830078125,1348.50830078125,0.4434243440628052,10.643062591552734,0.16243058443069458,337.5770263671875,7.984009742736816,72.49983978271484,0.0,0.0,0.0,3.9739999771118164
2100,0,86141.8515625,22.8799991607666,1348.50830078125,1348.50830078125,0.4056069254875183,10.704781532287598,0.19102667272090912,337.5625305175781,7.947305679321289,73.47981262207031,0.0,0.0,0.0,3.9739999771118164
2120,0,86141.8515625,22.8799991607666,1348.50830078125,1348.50830078125,0.36778950691223145,10.68104362487793,0.1481325477361679,337.5536193847656,7.916815280914307,74.44488525390625,0.0,0.0,0.0,3.9739999771118164
2140,0,86141.8515625,22.8799991607666,1348.50830078125,1348.50830078125,0.41033411026000977,10.685791015625,0.1862606406211853,337.5546875,7.850246429443359,75.38853454589844,0.0,0.0,0.0,3.9739999771118164
2160,0,86141.8515625,22.8799991607666,1348.50830078125,1348.50830078125,0.3157905340194702,10.695286750793457,0.13964056968688965,337.55487060546875,7.790132999420166,76.30908966064453,0.0,0.0,0.0,3.9779999256134033
2180,0,86139.171875,22.8799991607666,1348.7645263671875,1348.7645263671875,0.32051771879196167,10.652557373046875,0.06761392205953598,337.5501708984375,7.724892616271973,77.20857238769531,0.0,0.0,0.0,3.9779999256134033
2200,0,86139.171875,22.8799991607666,1348.7645263671875,1348.7645263671875,0.3866981863975525,10.700034141540527,0.053208597004413605,337.5548400878906,7.624968528747559,78.0884017944336,0.0,0.0,0.0,3.9739999771118164
2220,0,86139.171875,22.8799991607666,1348.7645263671875,1348.7645263671875,0.3961525559425354,10.742764472961426,0.09162279963493347,337.56744384765625,7.507431507110596,78.93621063232422,0.0,0.0,0.0,3.9739999771118164
2240,0,86139.171875,22.8799991607666,1348.7645263671875,1348.7645263671875,0.3725166916847229,10.671547889709473,0.06761392205953598,337.5870056152344,7.370212078094482,79.76193237304688,0.0,0.0,0.0,3.9779999256134033
2260,0,86139.171875,22.8799991607666,1348.7645263671875,1348.7645263671875,0.3583351671695709,10.67629623413086,0.09642458707094193,337.6068115234375,7.229865550994873,80.55075073242188,0.0,0.0,0.0,3.9739999771118164
2280,0,86139.171875,22.8799991607666,1348.7645263671875,1348.7645263671875,0.3583351671695709,10.7095308303833,0.1348387897014618,337.62237548828125,7.061522960662842,81.30569458007812,0.0,0.0,0.0,3.9739999771118164
2300,0,86139.171875,22.8799991607666,1348.7645263671875,1348.7645263671875,0.348880797624588,10.68104362487793,0.15289856493473053,337.6412658691406,6.8694748878479,82.02062225341797,0.0,0.0,0.0,3.9779999256134033
2320,0,86139.171875,22.8799991607666,1348.7645263671875,1348.7645263671875,0.40087971091270447,10.7095308303833,0.17196261882781982,337.652099609375,6.672609329223633,82.70394134521484,0.0,0.0,0.0,3.9739999771118164
2351,0,86139.171875,22.8799991607666,1348.7645263671875,1348.7645263671875,0.4765145480632782,10.638313293457031,0.0772174820303917,337.6673583984375,6.234282493591309,83.98445129394531,0.0,0.0,0.0,3.9739999771118164
2386,0,86139.171875,22.8799991607666,1348.7645263671875,1348.7645263671875,0.5379678606987,10.704781532287598,0.053208597004413605,337.6808776855469,5.864055156707764,84.86376190185547,0.0,0.0,0.0,3.9779999256134033
2415,0,86139.171875,22.8799991607666,1348.7645263671875,1348.7645263671875,0.4765145480632782,10.671547889709473,0.07241570204496384,337.6845397949219,5.535134315490723,85.6661605834961,0.0,0.0,0.0,3.9700000286102295
2445,0,86139.171875,22.8799991607666,1348.7645263671875,1348.7645263671875,0.4150612950325012,10.752259254455566,0.05801037326455116,337.684326171875,5.227972507476807,86.37615966796875,0.0,0.0,0.0,3.9779999256134033
2475,0,86139.171875,22.8799991607666,1348.7645263671875,1348.7645263671875,0.33469927310943604,10.519620895385742,0.03880327194929123,337.7016296386719,4.987631797790527,87.00498962402344,0.0,0.0,0.0,3.9739999771118164
2505,0,86139.171875,22.8799991607666,1348.7645263671875,1348.7645263671875,0.4623330235481262,10.742764472961426,0.08682102710008621,337.71337890625,4.71327543258667,87.55329895019531,0.0,0.0,0.0,3.9739999771118164
2535,0,86139.171875,22.8799991607666,1348.7645263671875,1348.7645263671875,0.5143319964408875,10.738017082214355,0.08682102710008621,337.7061767578125,4.376525402069092,88.0247802734375,0.0,0.0,0.0,3.9739999771118164
2595,0,86139.171875,22.8799991607666,1348.7645263671875,1348.7645263671875,0.2496100813150406,10.67629623413086,0.2243887484073639,337.6849670410156,4.260125160217285,88.25033569335938,0.0,0.0,0.0,3.9739999771118164
2620,0,86139.171875,22.8799991607666,1348.7645263671875,1348.7645263671875,0.27797311544418335,10.719025611877441,0.22915475070476532,337.65240478515625,4.212397575378418,88.42597198486328,0.0,0.0,0.0,3.9739999771118164
2640,0,86139.171875,22.8799991607666,1348.7645263671875,1348.7645263671875,0.3725166916847229,10.671547889709473,0.15289856493473053,337.6221923828125,4.11013650894165,88.61589813232422,0.0,0.0,0.0,3.9779999256134033
2660,0,86139.171875,22.8799991607666,1348.7645263671875,1348.7645263671875,0.5426950454711914,10.700034141540527,0.0772174820303917,337.5964660644531,3.900689125061035,88.81792449951172,0.0,0.0,0.0,3.9739999771118164
2680,0,86139.171875,22.8799991607666,1348.7645263671875,1348.7645263671875,0.495423287153244,10.633565902709961,0.06281214952468872,337.57330322265625,3.7385404109954834,88.9971694946289,0.0,0.0,0.0,3.9739999771118164
2700,0,86139.171875,22.8799991607666,1348.7645263671875,1348.7645263671875,0.3866981863975525,10.638313293457031,0.024397941306233406,337.5629577636719,3.6417386531829834,89.15116119384766,0.0,0.0,0.0,3.9739999771118164
2720,0,86139.171875,22.8799991607666,1348.7645263671875,1348.7645263671875,0.32051771879196167,10.728520393371582,0.029199715703725815,337.55157470703125,3.6044461727142334,89.29057312011719,0.0,0.0,0.0,3.9739999771118164
2740,0,86139.171875,22.8799991607666,1348.7645263671875,1348.7645263671875,0.25433725118637085,10.747511863708496,0.019596165046095848,337.5481872558594,3.610356092453003,89.41156768798828,0.0,0.0,0.0,3.9779999256134033
2760,0,86139.171875,22.8799991607666,1348.7645263671875,1348.7645263671875,0.27797311544418335,10.714278221130371,0.1108299046754837,337.55078125,3.6084039211273193,89.48778533935547,0.0,0.0,0.0,3.9739999771118164
2780,0,86136.4921875,22.8799991607666,1349.0181884765625,1349.0181884765625,0.3299720585346222,10.67629623413086,0.1444423496723175,337.54913330078125,3.5577406883239746,89.54390716552734,0.0,0.0,0.0,3.9700000286102295
2810,0,86136.4921875,22.8799991607666,1349.0181884765625,1349.0181884765625,0.5852396488189697,10.61932373046875,0.20055869221687317,337.53936767578125,3.3119313716888428,89.59930419921875,0.0,0.0,0.0,3.9739999771118164
2830,0,86136.4921875,22.8799991607666,1349.0181884765625,1349.0181884765625,0.6088754534721375,10.552855491638184,0.21009069681167603,337.51446533203125,3.1515586376190186,89.61109161376953,0.0,0.0,0.0,3.9779999256134033
2850,0,86136.4921875,22.8799991607666,1349.0181884765625,1349.0181884765625,0.5805124640464783,10.690539360046387,0.2243887484073639,337.47528076171875,3.0313541889190674,89.6109390258789,0.0,0.0,0.0,3.9739999771118164
2870,0,86136.4921875,22.8799991607666,1349.0181884765625,1349.0181884765625,0.4528786838054657,10.647809982299805,0.1862606406211853,337.4254455566406,3.0317938327789307,89.58966827392578,0.0,0.0,0.0,3.9739999771118164
2890,0,86136.4921875,22.8799991607666,1349.0181884765625,1349.0181884765625,0.36306232213974,10.652557373046875,0.13964056968688965,337.3658752441406,3.1014938354492188,89.6235122680664,0.0,0.0,0.0,3.9739999771118164
2905,0,86136.4921875,22.8799991607666,1349.0181884765625,1349.0181884765625,0.3299720585346222,10.719025611877441,0.10602813214063644,337.3122253417969,3.1468114852905273,89.68258666992188,0.0,0.0,0.0,3.9739999771118164
2936,0,86136.4921875,22.8799991607666,1349.0181884765625,1349.0181884765625,0.4292428195476532,10.704781532287598,-0.028421595692634583,337.2455139160156,3.183056354522705,89.8216552734375,0.0,0.0,0.0,3.9779999256134033
2965,0,86136.4921875,22.8799991607666,1349.0181884765625,1349.0181884765625,0.509604811668396,10.757007598876953,-0.11005178838968277,337.2143859863281,3.106300115585327,90.00762939453125,0.0,0.0,0.0,3.9739999771118164
2996,0,86136.4921875,22.8799991607666,1349.0181884765625,1349.0181884765625,0.48124176263809204,10.685791015625,-0.028421595692634583,337.21807861328125,3.0248000621795654,90.13370513916016,0.0,0.0,0.0,3.9739999771118164
3026,0,86136.4921875,22.8799991607666,1349.0181884765625,1349.0181884765625,0.03281740844249725,10.571845054626465,0.09642458707094193,337.21063232421875,3.37294340133667,90.08499908447266,0.0,0.0,0.0,3.9739999771118164
3055,0,86136.4921875,22.8799991607666,1349.0181884765625,1349.0181884765625,0.2827003300189972,10.61932373046875,0.3101769685745239,337.1858825683594,3.3186445236206055,89.91659545898438,0.0,0.0,0.0,3.9739999771118164
3085,0,86136.4921875,22.8799991607666,1349.0181884765625,1349.0181884765625,0.5852396488189697,10.757007598876953,0.4674553871154785,337.115966796875,3.182030200958252,89.5948257446289,0.0,0.0,0.0,3.9739999771118164
3106,0,86136.4921875,22.8799991607666,1349.0181884765625,1349.0181884765625,0.6419656872749329,10.82347583770752,0.13003700971603394,337.05853271484375,3.1072843074798584,89.5600357055664,0.0,0.0,0.0,3.9739999771118164
3136,0,86136.4921875,22.8799991607666,1349.0181884765625,1349.0181884765625,0.40087971091270447,10.581341743469238,0.024397941306233406,336.98101806640625,3.183574676513672,89.55408477783203,0.0,0.0,0.0,3.9739999771118164
3166,0,86136.4921875,22.8799991607666,1349.0181884765625,1349.0181884765625,0.4197884500026703,10.633565902709961,-0.05723225697875023,336.92218017578125,3.102785110473633,89.75292205810547,0.0,0.0,0.0,3.9739999771118164
3196,0,86136.4921875,22.8799991607666,1349.0181884765625,1349.0181884765625,1.6819446086883545,10.937420845031738,0.1481325477361679,336.873779296875,2.8387162685394287,89.95697021484375,0.0,0.0,0.0,3.9739999771118164
3236,0,86136.4921875,22.8799991607666,1349.0181884765625,1349.0181884765625,0.656147301197052,10.609827041625977,-0.12445712089538574,336.8671569824219,2.8223040103912354,90.02544403076172,0.0,0.0,0.0,3.9779999256134033
3266,0,86136.4921875,22.8799991607666,1349.0181884765625,1349.0181884765625,0.528513491153717,10.61932373046875,0.1671966016292572,336.87066650390625,2.8571720123291016,89.95329284667969,0.0,0.0,0.0,3.9739999771118164
3295,0,86139.171875,22.8799991607666,1348.7645263671875,1349.0181884765625,0.4386971592903137,10.67629623413086,0.23392076790332794,336.84326171875,2.922424554824829,89.87969207763672,0.0,0.0,0.0,3.9779999256134033
3326,0,86139.171875,22.8799991607666,1348.7645263671875,1349.0181884765625,0.43396997451782227,10.742764472961426,0.17196261882781982,336.7746276855469,3.0031232833862305,89.80384826660156,0.0,0.0,0.0,3.9739999771118164
3356,0,86136.4921875,22.8799991607666,1349.0181884765625,1349.0181884765625,0.3961525559425354,10.62407112121582,0.13964056968688965,336.7053527832031,3.0308730602264404,89.7686538696289,0.0,0.0,0.0,3.9779999256134033
3386,0,86139.171875,22.8799991607666,1348.7645263671875,1349.0181884765625,0.37724384665489197,10.700034141540527,0.0772174820303917,336.638671875,3.087876081466675,89.83345794677734,0.0,0.0,0.0,3.9779999256134033
3415,0,86139.171875,22.8799991607666,1348.7645263671875,1349.0181884765625,0.3725166916847229,10.666800498962402,-0.018818043172359467,336.57672119140625,3.176464319229126,89.93291473388672,0.0,0.0,0.0,3.9739999771118164
3445,0,86139.171875,22.8799991607666,1348.7645263671875,1349.0181884765625,0.40087971091270447,10.652557373046875,0.009992611594498158,336.5436706542969,3.2128653526306152,90.0097885131836,0.0,0.0,0.0,3.9739999771118164
3475,0,86136.4921875,22.8799991607666,1349.0181884765625,1349.0181884765625,0.36306232213974,10.657304763793945,0.1348387897014618,336.5270080566406,3.2761340141296387,90.01103210449219,0.0,0.0,0.0,3.9739999771118164
3505,0,86136.4921875,22.8799991607666,1349.0181884765625,1349.0181884765625,0.33469927310943604,10.62881851196289,0.23392076790332794,336.50885009765625,3.2957630157470703,89.92047882080078,0.0,0.0,0.0,3.9779999256134033
3536,0,86136.4921875,22.8799991607666,1349.0181884765625,1349.0181884765625,0.3819710314273834,10.67629623413086,0.2672828733921051,336.4674377441406,3.348615884780884,89.8053970336914,0.0,0.0,0.0,3.9739999771118164
3566,0,86136.4921875,22.8799991607666,1349.0181884765625,1349.0181884765625,0.36306232213974,10.68104362487793,0.21962273120880127,336.419677734375,3.2897775173187256,89.73292541503906,0.0,0.0,0.0,3.9779999256134033
3595,0,86136.4921875,22.8799991607666,1349.0181884765625,1349.0181884765625,0.3725166916847229,10.62407112121582,0.08201925456523895,336.35699462890625,3.275815010070801,89.74335479736328,0.0,0.0,0.0,3.9739999771118164
3626,0,86136.4921875,22.8799991607666,1349.0181884765625,1349.0181884765625,0.47178739309310913,10.719025611877441,0.03400149196386337,336.2970275878906,3.239630937576294,89.82857513427734,0.0,0.0,0.0,3.9739999771118164
3655,0,86136.4921875,22.8799991607666,1349.0181884765625,1349.0181884765625,0.4197884500026703,10.700034141540527,0.0003890599182341248,336.2510070800781,3.2339117527008057,89.93264770507812,0.0,0.0,0.0,3.9779999256134033
3692,0,86136.4921875,22.8799991607666,1349.0181884765625,1349.0181884765625,0.4292428195476532,10.662052154541016,-0.03322337195277214,336.2223815917969,3.243929624557495,90.01927947998047,0.0,0.0,0.0,3.9779999256134033
3716,0,86136.4921875,22.8799991607666,1349.0181884765625,1349.0181884765625,0.19200345873832703,10.851962089538574,0.21485672891139984,336.2040710449219,3.310603141784668,89.96849822998047,0.0,0.0,0.0,3.9739999771118164
3746,0,86136.4921875,22.8799991607666,1349.0181884765625,1349.0181884765625,0.509604811668396,10.666800498962402,0.1348387897014618,336.1842041015625,3.252239942550659,89.94630432128906,0.0,0.0,0.0,3.9779999256134033
3775,0,86133.8125,22.8799991607666,1349.2718505859375,1349.2718505859375,0.4859689474105835,10.695286750793457,0.2243887484073639,336.1483459472656,3.1509883403778076,89.88712310791016,0.0,0.0,0.0,3.9779999256134033
3806,0,86136.4921875,22.8799991607666,1349.0181884765625,1349.2718505859375,0.37724384665489197,10.638313293457031,0.1671966016292572,336.0954895019531,3.1415133476257324,89.81188201904297,0.0,0.0,0.0,3.9700000286102295
3836,0,86136.4921875,22.8799991607666,1349.0181884765625,1349.2718505859375,0.348880797624588,10.61932373046875,0.12043346464633942,336.0343017578125,3.2152717113494873,89.821533203125,0.0,0.0,0.0,3.9779999256134033
3866,0,86136.4921875,22.8799991607666,1349.0181884765625,1349.2718505859375,0.3394264578819275,10.647809982299805,0.053208597004413605,335.9815368652344,3.2518134117126465,89.89666748046875,0.0,0.0,0.0,3.9779999256134033
3895,0,86136.4921875,22.8799991607666,1349.0181884765625,1349.2718505859375,0.39142537117004395,10.671547889709473,0.005190835800021887,335.9397277832031,3.2301833629608154,89.9557876586914,0.0,0.0,0.0,3.9779999256134033
3926,0,86136.4921875,22.8799991607666,1349.0181884765625,1349.2718505859375,0.44815149903297424,10.666800498962402,0.07241570204496384,335.9137268066406,3.1421146392822266,89.99089050292969,0.0,0.0,0.0,3.9779999256134033
3956,0,86136.4921875,22.8799991607666,1349.0181884765625,1349.2718505859375,0.33469927310943604,10.728520393371582,0.1671966016292572,335.8908386230469,3.1740736961364746,89.94908905029297,0.0,0.0,0.0,3.9779999256134033
3986,0,86136.4921875,22.8799991607666,1349.0181884765625,1349.2718505859375,0.36306232213974,10.68104362487793,0.22915475070476532,335.8608093261719,3.2353296279907227,89.85092163085938,0.0,0.0,0.0,3.9739999771118164
4016,0,86136.4921875,22.8799991607666,1349.0181884765625,1349.2718505859375,0.3583351671695709,10.671547889709473,0.2672828733921051,335.8202209472656,3.2731640338897705,89.74017333984375,0.0,0.0,0.0,3.9739999771118164
4045,0,86136.4921875,22.8799991607666,1349.0181884765625,1349.2718505859375,0.4765145480632782,10.643062591552734,0.16243058443069458,335.76580810546875,3.198120594024658,89.72840881347656,0.0,0.0,0.0,3.9739999771118164
4066,0,86136.4921875,22.8799991607666,1349.0181884765625,1349.2718505859375,0.5048776268959045,10.666800498962402,0.08201925456523895,335.73236083984375,3.120544195175171,89.74392700195312,0.0,0.0,0.0,3.9739999771118164
4096,0,86136.4921875,22.8799991607666,1349.0181884765625,1349.2718505859375,0.44815149903297424,10.671547889709473,0.014794387854635715,335.6795959472656,3.1135635375976562,89.84291076660156,0.0,0.0,0.0,3.9739999771118164
4125,0,86136.4921875,22.8799991607666,1349.0181884765625,1349.2718505859375,0.3961525559425354,10.695286750793457,0.053208597004413605,335.63287353515625,3.1090567111968994,89.90576934814453,0.0,0.0,0.0,3.9779999256134033
4162,0,86136.4921875,22.8799991607666,1349.0181884765625,1349.2718505859375,0.495423287153244,10.62407112121582,0.053208597004413605,335.5923156738281,3.090634346008301,89.9791488647461,0.0,0.0,0.0,3.9739999771118164
4186,0,86136.4921875,22.8799991607666,1349.0181884765625,1349.2718505859375,0.5332406759262085,10.714278221130371,0.10602813214063644,335.57122802734375,3.047588586807251,89.97789001464844,0.0,0.0,0.0,3.9739999771118164
4216,0,86136.4921875,22.8799991607666,1349.0181884765625,1349.2718505859375,0.5048776268959045,10.733268737792969,0.11563169211149216,335.5344543457031,3.030165910720825,89.9218521118164,0.0,0.0,0.0,3.9739999771118164
4246,0,86133.8125,22.8799991607666,1349.2718505859375,1349.2718505859375,0.44815149903297424,10.685791015625,0.15766456723213196,335.48773193359375,3.0441455841064453,89.85615539550781,0.0,0.0,0.0,3.9739999771118164
4275,0,86133.8125,22.8799991607666,1349.2718505859375,1349.2718505859375,0.3583351671695709,10.747511863708496,0.15766456723213196,335.4328918457031,3.096407413482666,89.82428741455078,0.0,0.0,0.0,3.9739999771118164
4306,0,86133.8125,22.8799991607666,1349.2718505859375,1349.2718505859375,0.36778950691223145,10.62881851196289,0.0772174820303917,335.3745422363281,3.180636405944824,89.8454360961914,0.0,0.0,0.0,3.9739999771118164
4335,0,86133.8125,22.8799991607666,1349.2718505859375,1349.2718505859375,0.41033411026000977,10.67629623413086,0.029199715703725815,335.3283386230469,3.195091962814331,89.8824234008789,0.0,0.0,0.0,3.9779999256134033
4366,0,86133.8125,22.8799991607666,1349.2718505859375,1349.2718505859375,0.45760586857795715,10.700034141540527,0.029199715703725815,335.2909240722656,3.172124147415161,89.92233276367188,0.0,0.0,0.0,3.9800000190734863
4395,0,86133.8125,22.8799991607666,1349.2718505859375,1349.2718505859375,0.4056069254875183,10.685791015625,0.07241570204496384,335.2630310058594,3.1583924293518066,89.95542907714844,0.0,0.0,0.0,3.9700000286102295
4426,0,86133.8125,22.8799991607666,1349.2718505859375,1349.2718505859375,0.3252449035644531,10.671547889709473,0.1108299046754837,335.2373046875,3.195951223373413,89.93583679199219,0.0,0.0,0.0,3.9779999256134033
4446,0,86133.8125,22.8799991607666,1349.2718505859375,1349.2718505859375,0.3866981863975525,10.67629623413086,0.19579267501831055,335.2109375,3.231956958770752,89.87022399902344,0.0,0.0,0.0,3.9739999771118164
4476,0,86133.8125,22.8799991607666,1349.2718505859375,1349.2718505859375,0.39142537117004395,10.685791015625,0.1481325477361679,335.1712646484375,3.1997580528259277,89.82093048095703,0.0,0.0,0.0,3.9779999256134033
4505,0,86133.8125,22.8799991607666,1349.2718505859375,1349.2718505859375,0.47178739309310913,10.671547889709473,0.1481325477361679,335.12103271484375,3.10990571975708,89.79297637939453,0.0,0.0,0.0,3.9739999771118164
4536,0,86133.8125,22.8799991607666,1349.2718505859375,1349.2718505859375,0.44815149903297424,10.738017082214355,0.09642458707094193,335.0696716308594,3.053215265274048,89.82661437988281,0.0,0.0,0.0,3.9739999771118164
4566,0,86133.8125,22.8799991607666,1349.2718505859375,1349.2718505859375,0.4197884500026703,10.7095308303833,0.053208597004413605,335.0208740234375,3.0334532260894775,89.87598419189453,0.0,0.0,0.0,3.9779999256134033
4596,0,86136.4921875,22.8799991607666,1349.0181884765625,1349.2718505859375,0.41033411026000977,10.690539360046387,0.06761392205953598,334.9744567871094,3.105658769607544,89.90666198730469,0.0,0.0,0.0,3.9739999771118164
4631,0,86133.8125,22.8799991607666,1349.2718505859375,1349.2718505859375,0.5048776268959045,10.695286750793457,0.09162279963493347,334.9293518066406,3.0432844161987305,89.9128189086914,0.0,0.0,0.0,3.9779999256134033
4675,0,86136.4921875,22.8799991607666,1349.0181884765625,1349.2718505859375,0.4670602083206177,10.714278221130371,0.15766456723213196,334.881591796875,2.9750149250030518,89.87214660644531,0.0,0.0,0.0,3.9800000190734863
4706,0,86136.4921875,22.8799991607666,1349.0181884765625,1349.2718505859375,0.3819710314273834,10.652557373046875,0.17672862112522125,334.8323974609375,3.0260884761810303,89.81390380859375,0.0,0.0,0.0,3.9739999771118164
4735,0,86136.4921875,22.8799991607666,1349.0181884765625,1349.2718505859375,0.348880797624588,10.723773002624512,0.19102667272090912,334.77777099609375,3.135087490081787,89.75287628173828,0.0,0.0,0.0,3.9779999256134033
4766,0,86136.4921875,22.8799991607666,1349.0181884765625,1349.2718505859375,0.34415364265441895,10.68104362487793,0.06761392205953598,334.73284912109375,3.1739044189453125,89.77182006835938,0.0,0.0,0.0,3.9739999771118164
4796,0,86136.4921875,22.8799991607666,1349.0181884765625,1349.2718505859375,0.45760586857795715,10.633565902709961,0.09642458707094193,334.6796569824219,3.180739164352417,89.80313873291016,0.0,0.0,0.0,3.9739999771118164
4826,0,86136.4921875,22.8799991607666,1349.0181884765625,1349.2718505859375,0.4292428195476532,10.690539360046387,0.06761392205953598,334.6427917480469,3.1768295764923096,89.8482666015625,0.0,0.0,0.0,3.9739999771118164
4856,0,86133.8125,22.8799991607666,1349.2718505859375,1349.2718505859375,0.3725166916847229,10.67629623413086,0.08201925456523895,334.6121826171875,3.2015957832336426,89.88978576660156,0.0,0.0,0.0,3.9739999771118164
4886,0,86136.4921875,22.8799991607666,1349.0181884765625,1349.2718505859375,0.31106337904930115,10.700034141540527,0.15289856493473053,334.5787353515625,3.2335259914398193,89.86868286132812,0.0,0.0,0.0,3.9779999256134033
4916,0,86133.8125,22.8799991607666,1349.2718505859375,1349.2718505859375,0.41033411026000977,10.7095308303833,0.1348387897014618,334.544921875,3.2294700145721436,89.84256744384766,0.0,0.0,0.0,3.9779999256134033
4946,0,86133.8125,22.8799991607666,1349.2718505859375,1349.2718505859375,0.4765145480632782,10.67629623413086,0.13964056968688965,334.49847412109375,3.1825852394104004,89.82270050048828,0.0,0.0,0.0,3.9739999771118164
4975,0,86133.8125,22.8799991607666,1349.2718505859375,1349.2718505859375,0.4859689474105835,10.62407112121582,0.1108299046754837,334.4493103027344,3.096096992492676,89.830322265625,0.0,0.0,0.0,3.9779999256134033
5006,0,86136.4921875,22.8799991607666,1349.0181884765625,1349.2718505859375,0.4670602083206177,10.643062591552734,0.07241570204496384,334.400634765625,3.0460000038146973,89.84044647216797,0.0,0.0,0.0,3.9739999771118164
5036,0,86133.8125,22.8799991607666,1349.2718505859375,1349.2718505859375,0.41033411026000977,10.704781532287598,0.04840682074427605,334.3560791015625,3.0668718814849854,89.85603332519531,0.0,0.0,0.0,3.9779999256134033
5066,0,86133.8125,22.8799991607666,1349.2718505859375,1349.2718505859375,0.43396997451782227,10.714278221130371,0.09162279963493347,334.31182861328125,3.0722739696502686,89.88999938964844,0.0,0.0,0.0,3.9739999771118164
5096,0,86133.8125,22.8799991607666,1349.2718505859375,1349.2718505859375,0.4528786838054657,10.614575386047363,0.1108299046754837,334.2763366699219,3.0749106407165527,89.9020767211914,0.0,0.0,0.0,3.9779999256134033
5132,0,86136.4921875,22.8799991607666,1349.0181884765625,1349.2718505859375,0.4434243440628052,10.719025611877441,0.19579267501831055,334.2240905761719,3.0274479389190674,89.83366394042969,0.0,0.0,0.0,3.9779999256134033
5166,0,86136.4921875,22.8799991607666,1349.0181884765625,1349.2718505859375,0.36778950691223145,10.662052154541016,0.15289856493473053,334.1772766113281,3.0712966918945312,89.79051208496094,0.0,0.0,0.0,3.9779999256134033
5195,0,86136.4921875,22.8799991607666,1349.0181884765625,1349.2718505859375,0.3725166916847229,10.685791015625,0.1444423496723175,334.12310791015625,3.1330909729003906,89.75164794921875,0.0,0.0,0.0,3.9700000286102295
5226,0,86133.8125,22.8799991607666,1349.2718505859375,1349.2718505859375,0.36778950691223145,10.742764472961426,0.11563169211149216,334.0657958984375,3.2341861724853516,89.76607513427734,0.0,0.0,0.0,3.9779999256134033
5256,0,86136.4921875,22.8799991607666,1349.0181884765625,1349.2718505859375,0.4197884500026703,10.666800498962402,0.09642458707094193,334.0232849121094,3.2217347621917725,89.81526947021484,0.0,0.0,0.0,3.9779999256134033
5286,0,86136.4921875,22.8799991607666,1349.0181884765625,1349.2718505859375,0.39142537117004395,10.638313293457031,0.06281214952468872,333.9841613769531,3.1826579570770264,89.84784698486328,0.0,0.0,0.0,3.9739999771118164
5316,0,86133.8125,22.8799991607666,1349.2718505859375,1349.2718505859375,0.34415364265441895,10.690539360046387,0.1108299046754837,333.9454040527344,3.2190709114074707,89.8644027709961,0.0,0.0,0.0,3.9739999771118164
5345,0,86133.8125,22.8799991607666,1349.2718505859375,1349.2718505859375,0.36306232213974,10.728520393371582,0.12523524463176727,333.9112243652344,3.21246075630188,89.8402099609375,0.0,0.0,0.0,3.9779999256134033
5376,0,86133.8125,22.8799991607666,1349.2718505859375,1349.2718505859375,0.42451563477516174,10.761754989624023,0.15289856493473053,333.8652038574219,3.2037875652313232,89.80799102783203,0.0,0.0,0.0,3.9739999771118164
5396,0,86133.8125,22.8799991607666,1349.2718505859375,1349.2718505859375,0.47178739309310913,10.7095308303833,0.1481325477361679,333.8316955566406,3.16634464263916,89.79498291015625,0.0,0.0,0.0,3.9739999771118164
5426,0,86133.8125,22.8799991607666,1349.2718505859375,1349.2718505859375,0.45760586857795715,10.662052154541016,0.0772174820303917,333.7789611816406,3.0975866317749023,89.80755615234375,0.0,0.0,0.0,3.9739999771118164
5455,0,86133.8125,22.8799991607666,1349.2718505859375,1349.2718505859375,0.44815149903297424,10.643062591552734,0.09642458707094193,333.72662353515625,3.1252598762512207,89.81305694580078,0.0,0.0,0.0,3.9779999256134033
5486,0,86133.8125,22.8799991607666,1349.2718505859375,1349.2718505859375,0.44815149903297424,10.704781532287598,0.06281214952468872,333.67962646484375,3.102628469467163,89.84111022949219,0.0,0.0,0.0,3.9779999256134033
5516,0,86133.8125,22.8799991607666,1349.2718505859375,1349.2718505859375,0.4623330235481262,10.68104362487793,0.09642458707094193,333.6314392089844,3.0828843116760254,89.86922454833984,0.0,0.0,0.0,3.9739999771118164
5546,0,86133.8125,22.8799991607666,1349.2718505859375,1349.2718505859375,0.4859689474105835,10.695286750793457,0.11563169211149216,333.59197998046875,3.05680775642395,89.84161376953125,0.0,0.0,0.0,3.9779999256134033
5576,0,86133.8125,22.8799991607666,1349.2718505859375,1349.2718505859375,0.44815149903297424,10.67629623413086,0.1444423496723175,333.55035400390625,3.0492420196533203,89.80064392089844,0.0,0.0,0.0,3.9779999256134033
5612,0,86133.8125,22.8799991607666,1349.2718505859375,1349.2718505859375,0.3819710314273834,10.685791015625,0.1348387897014618,333.4803161621094,3.0951342582702637,89.743408203125,0.0,0.0,0.0,3.9739999771118164
5646,0,86133.8125,22.8799991607666,1349.2718505859375,1349.2718505859375,0.348880797624588,10.714278221130371,0.15289856493473053,333.4281005859375,3.1661393642425537,89.7381362915039,0.0,0.0,0.0,3.9739999771118164
5676,0,86136.4921875,22.8799991607666,1349.0181884765625,1349.2718505859375,0.4197884500026703,10.68104362487793,0.12043346464633942,333.37841796875,3.180835723876953,89.75178527832031,0.0,0.0,0.0,3.9739999771118164
5706,0,86136.4921875,22.8799991607666,1349.0181884765625,1349.2718505859375,0.47178739309310913,10.67629623413086,0.0772174820303917,333.33245849609375,3.1537859439849854,89.77565002441406,0.0,0.0,0.0,3.9779999256134033
5735,0,86136.4921875,22.8799991607666,1349.0181884765625,1349.2718505859375,0.4859689474105835,10.67629623413086,0.08201925456523895,333.29742431640625,3.1014299392700195,89.81324768066406,0.0,0.0,0.0,3.9739999771118164
5765,0,86136.4921875,22.8799991607666,1349.0181884765625,1349.2718505859375,0.3961525559425354,10.82822322845459,0.10122635960578918,333.2561950683594,3.1039538383483887,89.78057098388672,0.0,0.0,0.0,3.9739999771118164
5796,0,86136.4921875,22.8799991607666,1349.0181884765625,1349.2718505859375,0.4150612950325012,11.302995681762695,0.15289856493473053,333.19207763671875,2.820200204849243,89.74859619140625,0.0,0.0,0.0,3.9739999771118164
5826,1,86136.4921875,22.8799991607666,1349.0181884765625,1349.2718505859375,0.348880797624588,10.215765953063965,0.12043346464633942,333.15521240234375,2.8588578701019287,89.86395263671875,0.0,0.0,0.0,3.9779999256134033
5856,1,86136.4921875,22.8799991607666,1349.0181884765625,1349.2718505859375,0.8405072093009949,10.139802932739258,-0.25890684127807617,333.1260070800781,2.6819846630096436,89.97144317626953,0.0,0.0,0.0,3.9779999256134033
5886,1,86136.4921875,22.8799991607666,1349.0181884765625,1349.2718505859375,0.5379678606987,10.700034141540527,0.06761392205953598,333.0633850097656,2.7409920692443848,89.98503875732422,0.0,0.0,0.0,3.9739999771118164
5916,1,86136.4921875,22.8799991607666,1349.0181884765625,1349.2718505859375,0.4150612950325012,10.657304763793945,-0.047628700733184814,333.0148620605469,2.8796536922454834,89.96845245361328,0.0,0.0,0.0,3.9700000286102295
5946,1,86136.4921875,22.8799991607666,1349.0181884765625,1349.2718505859375,0.36306232213974,10.728520393371582,0.05801037326455116,332.98236083984375,3.0438292026519775,89.99885559082031,0.0,0.0,0.0,3.9700000286102295
5966,1,86133.8125,22.8799991607666,1349.2718505859375,1349.2718505859375,0.36778950691223145,10.62881851196289,0.11563169211149216,332.943603515625,3.168915033340454,89.95736694335938,0.0,0.0,0.0,3.9739999771118164
5996,1,86133.8125,22.8799991607666,1349.2718505859375,1349.2718505859375,0.5048776268959045,10.514873504638672,0.16243058443069458,332.8877868652344,3.1653475761413574,89.87069702148438,0.0,0.0,0.0,3.9700000286102295
6026,1,86133.8125,22.8799991607666,1349.2718505859375,1349.2718505859375,0.5521494150161743,10.657304763793945,0.19102667272090912,332.83697509765625,3.110098123550415,89.7507095336914,0.0,0.0,0.0,3.9779999256134033
6056,1,86133.8125,22.8799991607666,1349.2718505859375,1349.2718505859375,0.5001504421234131,10.794988632202148,-0.018818043172359467,332.7932434082031,3.0860037803649902,89.79817199707031,0.0,0.0,0.0,3.9660000801086426
6092,1,86133.8125,22.8799991607666,1349.2718505859375,1349.2718505859375,0.39142537117004395,10.747511863708496,0.009992611594498158,332.7280578613281,3.24870228767395,89.85063934326172,0.0,0.0,0.0,3.9700000286102295
6116,1,86136.4921875,22.8799991607666,1349.0181884765625,1349.2718505859375,0.3394264578819275,10.605079650878906,0.13003700971603394,332.6981506347656,3.30920147895813,89.82463073730469,0.0,0.0,0.0,3.9700000286102295
6146,1,86133.8125,22.8799991607666,1349.2718505859375,1349.2718505859375,0.4765145480632782,10.652557373046875,0.23392076790332794,332.6413879394531,3.328057050704956,89.71223449707031,0.0,0.0,0.0,3.9660000801086426
6176,1,86133.8125,22.8799991607666,1349.2718505859375,1349.2718505859375,0.5474222302436829,10.742764472961426,0.014794387854635715,332.5937805175781,3.236485719680786,89.71675109863281,0.0,0.0,0.0,3.9700000286102295
6205,1,86136.4921875,22.8799991607666,1349.0181884765625,1349.2718505859375,0.3819710314273834,10.643062591552734,0.08201925456523895,332.54852294921875,3.282417058944702,89.73064422607422,0.0,0.0,0.0,3.9660000801086426
6236,1,86133.8125,22.8799991607666,1349.2718505859375,1349.2718505859375,0.2590644359588623,10.62881851196289,0.10602813214063644,332.4963684082031,3.4623525142669678,89.67285919189453,0.0,0.0,0.0,3.9660000801086426
6266,1,86133.8125,22.8799991607666,1349.2718505859375,1349.2718505859375,0.3063361942768097,10.652557373046875,0.2911129295825958,332.4347839355469,3.5615148544311523,89.54912567138672,0.0,0.0,0.0,3.9739999771118164
6295,1,86133.8125,22.8799991607666,1349.2718505859375,1349.2718505859375,0.5757852792739868,10.700034141540527,0.11563169211149216,332.3916320800781,3.44099497795105,89.66149139404297,0.0,0.0,0.0,3.9739999771118164
6325,1,86133.8125,22.8799991607666,1349.2718505859375,1349.2718505859375,0.5568765997886658,10.785493850708008,-0.014016268774867058,332.3473815917969,3.3414499759674072,89.72358703613281,0.0,0.0,0.0,3.9779999256134033
6355,1,86133.8125,22.8799991607666,1349.2718505859375,1349.2718505859375,0.3583351671695709,10.614575386047363,0.07241570204496384,332.296630859375,3.359731435775757,89.75467681884766,0.0,0.0,0.0,3.9779999256134033
6385,1,86133.8125,22.8799991607666,1349.2718505859375,1349.2718505859375,0.27797311544418335,10.62881851196289,0.21962273120880127,332.23480224609375,3.456658363342285,89.6375961303711,0.0,0.0,0.0,3.9779999256134033
6415,1,86133.8125,22.8799991607666,1349.2718505859375,1349.2718505859375,0.4197884500026703,10.67629623413086,0.2625168263912201,332.1908874511719,3.4196643829345703,89.66898345947266,0.0,0.0,0.0,3.9660000801086426
6446,1,86133.8125,22.8799991607666,1349.2718505859375,1349.2718505859375,0.5426950454711914,10.77599811553955,-0.047628700733184814,332.1491394042969,3.354867696762085,89.74882507324219,0.0,0.0,0.0,3.9700000286102295
6476,1,86133.8125,22.8799991607666,1349.2718505859375,1349.2718505859375,0.48124176263809204,10.567097663879395,0.12523524463176727,332.10003662109375,3.261847734451294,89.74553680419922,0.0,0.0,0.0,3.9739999771118164
6505,1,86133.8125,22.8799991607666,1349.2718505859375,1349.2718505859375,0.4292428195476532,10.67629623413086,0.22915475070476532,332.03179931640625,3.299844741821289,89.61436462402344,0.0,0.0,0.0,3.9739999771118164
6535,1,86133.8125,22.8799991607666,1349.2718505859375,1349.2718505859375,0.41033411026000977,10.742764472961426,-0.018818043172359467,331.98541259765625,3.344303846359253,89.69275665283203,0.0,0.0,0.0,3.9779999256134033
6576,1,86133.8125,22.8799991607666,1349.2718505859375,1349.2718505859375,0.45760586857795715,10.766502380371094,-0.0956464558839798,331.9296569824219,3.3489530086517334,89.82328796386719,0.0,0.0,0.0,3.9739999771118164
6605,1,86133.8125,22.8799991607666,1349.2718505859375,1349.2718505859375,0.4670602083206177,10.562350273132324,0.17196261882781982,331.8819580078125,3.317338705062866,89.80270385742188,0.0,0.0,0.0,3.9700000286102295
6636,1,86133.8125,22.8799991607666,1349.2718505859375,1349.2718505859375,0.4386971592903137,10.662052154541016,0.2243887484073639,331.82086181640625,3.278576374053955,89.6846694946289,0.0,0.0,0.0,3.9739999771118164
6666,1,86133.8125,22.8799991607666,1349.2718505859375,1349.2718505859375,0.3961525559425354,10.799736022949219,0.029199715703725815,331.7744445800781,3.2864158153533936,89.71501922607422,0.0,0.0,0.0,3.9739999771118164
6696,1,86136.4921875,22.8799991607666,1349.0181884765625,1349.2718505859375,0.34415364265441895,10.813980102539062,0.08201925456523895,331.7317810058594,3.355276346206665,89.7811279296875,0.0,0.0,0.0,3.9739999771118164
6726,1,86136.4921875,22.8799991607666,1349.0181884765625,1349.2718505859375,0.348880797624588,10.62881851196289,0.12523524463176727,331.68096923828125,3.4376447200775146,89.7531509399414,0.0,0.0,0.0,3.9739999771118164
6756,1,86133.8125,22.8799991607666,1349.2718505859375,1349.2718505859375,0.4765145480632782,10.600332260131836,0.22915475070476532,331.62554931640625,3.3879952430725098,89.6728286743164,0.0,0.0,0.0,3.9700000286102295
6785,1,86136.4921875,22.8799991607666,1349.0181884765625,1349.2718505859375,0.5143319964408875,10.719025611877441,0.06281214952468872,331.57342529296875,3.3131473064422607,89.63257598876953,0.0,0.0,0.0,3.9739999771118164
6815,1,86136.4921875,22.8799991607666,1349.0181884765625,1349.2718505859375,0.4056069254875183,10.666800498962402,0.03400149196386337,331.534423828125,3.2628047466278076,89.73651123046875,0.0,0.0,0.0,3.9739999771118164
6846,1,86133.8125,22.8799991607666,1349.2718505859375,1349.2718505859375,0.3394264578819275,10.61932373046875,0.08201925456523895,331.4897766113281,3.309116840362549,89.72692108154297,0.0,0.0,0.0,3.9700000286102295
6876,1,86133.8125,22.8799991607666,1349.2718505859375,1349.2718505859375,0.41033411026000977,10.595584869384766,0.1671966016292572,331.4391174316406,3.3509488105773926,89.68640899658203,0.0,0.0,0.0,3.9700000286102295
6905,1,86133.8125,22.8799991607666,1349.2718505859375,1349.2718505859375,0.5048776268959045,10.685791015625,0.21962273120880127,331.3777770996094,3.2886452674865723,89.55951690673828,0.0,0.0,0.0,3.9739999771118164
6935,1,86136.4921875,22.8799991607666,1349.0181884765625,1349.2718505859375,0.45760586857795715,10.7095308303833,0.12523524463176727,331.3325500488281,3.1948533058166504,89.58633422851562,0.0,0.0,0.0,3.9739999771118164
6966,1,86136.4921875,22.8799991607666,1349.0181884765625,1349.2718505859375,0.3961525559425354,10.657304763793945,0.11563169211149216,331.2768859863281,3.1942973136901855,89.60393524169922,0.0,0.0,0.0,3.9779999256134033
6996,1,86136.4921875,22.8799991607666,1349.0181884765625,1349.2718505859375,0.3583351671695709,10.662052154541016,0.10122635960578918,331.2335510253906,3.2153871059417725,89.61170196533203,0.0,0.0,0.0,3.9739999771118164
7025,1,86136.4921875,22.8799991607666,1349.0181884765625,1349.2718505859375,0.4670602083206177,10.67629623413086,0.12523524463176727,331.17523193359375,3.2560412883758545,89.57134246826172,0.0,0.0,0.0,3.9700000286102295
7062,1,86136.4921875,22.8799991607666,1349.0181884765625,1349.2718505859375,0.5001504421234131,10.62407112121582,0.03400149196386337,331.10162353515625,3.2140941619873047,89.69371032714844,0.0,0.0,0.0,3.9579999446868896
7106,1,86136.4921875,22.8799991607666,1349.0181884765625,1349.2718505859375,0.34415364265441895,10.552855491638184,0.10602813214063644,331.0532531738281,3.2846968173980713,89.72417449951172,0.0,0.0,0.0,3.9700000286102295
7136,1,86133.8125,22.8799991607666,1349.2718505859375,1349.2718505859375,0.2732459604740143,10.609827041625977,0.33400702476501465,330.9927673339844,3.4279069900512695,89.59211730957031,0.0,0.0,0.0,3.9739999771118164
7166,1,86133.8125,22.8799991607666,1349.2718505859375,1349.2718505859375,0.3819710314273834,10.757007598876953,0.10602813214063644,330.9466247558594,3.438634157180786,89.6025390625,0.0,0.0,0.0,3.9700000286102295
7195,1,86133.8125,22.8799991607666,1349.2718505859375,1349.2718505859375,0.4765145480632782,10.733268737792969,-0.0092144925147295,330.9062194824219,3.3914120197296143,89.67464447021484,0.0,0.0,0.0,3.9700000286102295
7226,1,86133.8125,22.8799991607666,1349.2718505859375,1349.2718505859375,0.45760586857795715,10.605079650878906,0.1108299046754837,330.862548828125,3.317903995513916,89.67251586914062,0.0,0.0,0.0,3.9700000286102295
7256,1,86133.8125,22.8799991607666,1349.2718505859375,1349.2718505859375,0.3819710314273834,10.5291166305542,0.19102667272090912,330.7975769042969,3.3343241214752197,89.56070709228516,0.0,0.0,0.0,3.9739999771118164
7286,1,86133.8125,22.8799991607666,1349.2718505859375,1349.2718505859375,0.35360798239707947,10.638313293457031,0.24345280230045319,330.7480163574219,3.3693735599517822,89.5866928100586,0.0,0.0,0.0,3.9700000286102295
7306,1,86133.8125,22.8799991607666,1349.2718505859375,1349.2718505859375,0.34415364265441895,10.652557373046875,0.10122635960578918,330.7214050292969,3.376657724380493,89.60078430175781,0.0,0.0,0.0,3.9739999771118164
7336,1,86133.8125,22.8799991607666,1349.2718505859375,1349.2718505859375,0.4197884500026703,10.633565902709961,0.1348387897014618,330.6700439453125,3.38390851020813,89.62189483642578,0.0,0.0,0.0,3.9700000286102295
7365,1,86136.4921875,22.8799991607666,1349.0181884765625,1349.2718505859375,0.4859689474105835,10.633565902709961,0.08201925456523895,330.6185302734375,3.335099935531616,89.57865142822266,0.0,0.0,0.0,3.9739999771118164
7395,1,86136.4921875,22.8799991607666,1349.0181884765625,1349.2718505859375,0.4292428195476532,10.562350273132324,0.25775083899497986,330.56036376953125,3.26078200340271,89.51189422607422,0.0,0.0,0.0,3.9700000286102295
7426,1,86136.4921875,22.8799991607666,1349.0181884765625,1349.2718505859375,0.3961525559425354,10.747511863708496,0.07241570204496384,330.51849365234375,3.24900484085083,89.5954360961914,0.0,0.0,0.0,3.9779999256134033
7456,1,86136.4921875,22.8799991607666,1349.0181884765625,1349.2718505859375,0.3157905340194702,10.62407112121582,0.09642458707094193,330.46929931640625,3.3327016830444336,89.61237335205078,0.0,0.0,0.0,3.9739999771118164
7486,1,86136.4921875,22.8799991607666,1349.0181884765625,1349.2718505859375,0.4056069254875183,10.54335880279541,0.2053246945142746,330.41461181640625,3.3567371368408203,89.60577392578125,0.0,0.0,0.0,3.9700000286102295
7516,1,86136.4921875,22.8799991607666,1349.0181884765625,1349.2718505859375,0.5001504421234131,10.662052154541016,0.15289856493473053,330.3519592285156,3.281249761581421,89.53323364257812,0.0,0.0,0.0,3.9739999771118164
7552,1,86136.4921875,22.8799991607666,1349.0181884765625,1349.2718505859375,0.36778950691223145,10.766502380371094,-0.028421595692634583,330.2268371582031,3.3874998092651367,89.64871978759766,0.0,0.0,0.0,3.9779999256134033
7615,1,86136.4921875,22.8799991607666,1349.0181884765625,1349.2718505859375,0.2921546697616577,10.614575386047363,0.22915475070476532,330.16448974609375,3.51031231880188,89.60053253173828,0.0,0.0,0.0,3.9700000286102295
7646,1,86136.4921875,22.8799991607666,1349.0181884765625,1349.2718505859375,0.43396997451782227,10.647809982299805,0.15289856493473053,330.1038818359375,3.4796063899993896,89.5184555053711,0.0,0.0,0.0,3.9700000286102295
7676,1,86133.8125,22.8799991607666,1349.2718505859375,1349.2718505859375,0.4623330235481262,10.752259254455566,-0.018818043172359467,330.06243896484375,3.3858842849731445,89.62330627441406,0.0,0.0,0.0,3.9739999771118164
7706,1,86136.4921875,22.8799991607666,1349.0181884765625,1349.2718505859375,0.4056069254875183,10.719025611877441,0.08201925456523895,330.0177917480469,3.3811914920806885,89.66444396972656,0.0,0.0,0.0,3.9779999256134033
7736,1,86133.8125,22.8799991607666,1349.2718505859375,1349.2718505859375,0.31106337904930115,10.595584869384766,0.1444423496723175,329.9694519042969,3.456758499145508,89.64144897460938,0.0,0.0,0.0,3.9739999771118164
7766,1,86133.8125,22.8799991607666,1349.2718505859375,1349.2718505859375,0.42451563477516174,10.53861141204834,0.3054109513759613,329.90509033203125,3.485363721847534,89.48945617675781,0.0,0.0,0.0,3.9739999771118164
7796,1,86133.8125,22.8799991607666,1349.2718505859375,1349.2718505859375,0.5237863659858704,10.794988632202148,0.019596165046095848,329.8549499511719,3.3815438747406006,89.49929809570312,0.0,0.0,0.0,3.9660000801086426
7825,1,86133.8125,22.8799991607666,1349.2718505859375,1349.2718505859375,0.5143319964408875,10.809232711791992,0.05801037326455116,329.8025207519531,3.356377124786377,89.61139678955078,0.0,0.0,0.0,3.9739999771118164
7855,1,86136.4921875,22.8799991607666,1349.0181884765625,1349.2718505859375,0.36306232213974,10.600332260131836,0.12043346464633942,329.76251220703125,3.314053773880005,89.65604400634766,0.0,0.0,0.0,3.9739999771118164
7876,1,86136.4921875,22.8799991607666,1349.0181884765625,1349.2718505859375,0.35360798239707947,10.54335880279541,0.19102667272090912,329.7239074707031,3.365140914916992,89.61180114746094,0.0,0.0,0.0,3.9700000286102295
7906,1,86136.4921875,22.8799991607666,1349.0181884765625,1349.2718505859375,0.4056069254875183,10.690539360046387,0.27681487798690796,329.6632995605469,3.3941197395324707,89.45475006103516,0.0,0.0,0.0,3.9700000286102295
7936,1,86136.4921875,22.8799991607666,1349.0181884765625,1349.2718505859375,0.5190591812133789,10.766502380371094,-0.05243047699332237,329.6153259277344,3.331308603286743,89.52847290039062,0.0,0.0,0.0,3.9700000286102295
7966,1,86136.4921875,22.8799991607666,1349.0181884765625,1349.2718505859375,0.4434243440628052,10.662052154541016,0.0772174820303917,329.5677795410156,3.2922165393829346,89.60540008544922,0.0,0.0,0.0,3.9739999771118164
7995,1,86136.4921875,22.8799991607666,1349.0181884765625,1349.2718505859375,0.3394264578819275,10.571845054626465,0.12523524463176727,329.5132751464844,3.3315012454986572,89.61157989501953,0.0,0.0,0.0,3.9700000286102295
8025,1,86136.4921875,22.8799991607666,1349.0181884765625,1349.2718505859375,0.31106337904930115,10.666800498962402,0.13964056968688965,329.4661865234375,3.381814956665039,89.58826446533203,0.0,0.0,0.0,3.9779999256134033
8070,1,86136.4921875,22.8799991607666,1349.0181884765625,1349.2718505859375,0.3866981863975525,10.671547889709473,0.11563169211149216,329.40032958984375,3.3686532974243164,89.5736083984375,0.0,0.0,0.0,3.9779999256134033
8106,1,86136.4921875,22.8799991607666,1349.0181884765625,1349.2718505859375,0.4623330235481262,10.633565902709961,0.0772174820303917,329.3321838378906,3.2708022594451904,89.59012603759766,0.0,0.0,0.0,3.9779999256134033
8136,1,86136.4921875,22.8799991607666,1349.0181884765625,1349.2718505859375,0.3961525559425354,10.600332260131836,0.08682102710008621,329.2757263183594,3.3008291721343994,89.59246063232422,0.0,0.0,0.0,3.9739999771118164
8165,1,86136.4921875,22.8799991607666,1349.0181884765625,1349.2718505859375,0.33469927310943604,10.605079650878906,0.24821880459785461,329.21295166015625,3.3735198974609375,89.49488830566406,0.0,0.0,0.0,3.9739999771118164
8196,1,86136.4921875,22.8799991607666,1349.0181884765625,1349.2718505859375,0.3961525559425354,10.704781532287598,0.17196261882781982,329.15911865234375,3.3740406036376953,89.49195861816406,0.0,0.0,0.0,3.9739999771118164
8226,1,86136.4921875,22.8799991607666,1349.0181884765625,1349.2718505859375,0.49069610238075256,10.82822322845459,0.005190835800021887,329.1166076660156,3.3519229888916016,89.57275390625,0.0,0.0,0.0,3.9739999771118164
8256,1,86136.4921875,22.8799991607666,1349.0181884765625,1349.2718505859375,0.47178739309310913,10.614575386047363,0.09162279963493347,329.0722351074219,3.2767300605773926,89.59492492675781,0.0,0.0,0.0,3.9739999771118164
8286,1,86136.4921875,22.8799991607666,1349.0181884765625,1349.2718505859375,0.4197884500026703,10.62881851196289,0.13003700971603394,329.013916015625,3.2502799034118652,89.4914779663086,0.0,0.0,0.0,3.9739999771118164
8316,1,86136.4921875,22.8799991607666,1349.0181884765625,1349.2718505859375,0.43396997451782227,10.690539360046387,0.25775083899497986,328.95965576171875,3.2598302364349365,89.50469970703125,0.0,0.0,0.0,3.9700000286102295
8345,1,86136.4921875,22.8799991607666,1349.0181884765625,1349.2718505859375,0.4197884500026703,10.704781532287598,-0.0092144925147295,328.9081115722656,3.3065366744995117,89.5707778930664,0.0,0.0,0.0,3.9700000286102295
8376,1,86136.4921875,22.8799991607666,1349.0181884765625,1349.2718505859375,0.41033411026000977,10.771249771118164,0.04840682074427605,328.857421875,3.358532190322876,89.60850524902344,0.0,0.0,0.0,3.9739999771118164
8406,1,86136.4921875,22.8799991607666,1349.0181884765625,1349.2718505859375,0.43396997451782227,10.638313293457031,0.27204886078834534,328.79376220703125,3.327728748321533,89.47093963623047,0.0,0.0,0.0,3.9700000286102295
8435,1,86136.4921875,22.8799991607666,1349.0181884765625,1349.2718505859375,0.40087971091270447,10.68104362487793,0.3054109513759613,328.7287902832031,3.314378023147583,89.42012786865234,0.0,0.0,0.0,3.9700000286102295
8465,1,86136.4921875,22.8799991607666,1349.0181884765625,1349.2718505859375,0.34415364265441895,10.723773002624512,0.0772174820303917,328.6805725097656,3.365497589111328,89.50326538085938,0.0,0.0,0.0,3.9779999256134033
8496,1,86136.4921875,22.8799991607666,1349.0181884765625,1349.2718505859375,0.3063361942768097,10.643062591552734,0.12523524463176727,328.6291198730469,3.4602766036987305,89.5083999633789,0.0,0.0,0.0,3.9779999256134033
8525,1,86136.4921875,22.8799991607666,1349.0181884765625,1349.2718505859375,0.3725166916847229,10.62407112121582,0.27204886078834534,328.5721130371094,3.514270305633545,89.41910552978516,0.0,0.0,0.0,3.9700000286102295
8562,1,86136.4921875,22.8799991607666,1349.0181884765625,1349.2718505859375,0.4386971592903137,10.742764472961426,0.03880327194929123,328.496826171875,3.425515651702881,89.37789154052734,0.0,0.0,0.0,3.9700000286102295
8585,1,86136.4921875,22.8799991607666,1349.0181884765625,1349.2718505859375,0.4765145480632782,10.733268737792969,0.005190835800021887,328.4672546386719,3.3501596450805664,89.47230529785156,0.0,0.0,0.0,3.9739999771118164
8616,1,86136.4921875,22.8799991607666,1349.0181884765625,1349.2718505859375,0.39142537117004395,10.690539360046387,0.10602813214063644,328.4128112792969,3.386148452758789,89.52123260498047,0.0,0.0,0.0,3.9700000286102295
8645,1,86136.4921875,22.8799991607666,1349.0181884765625,1349.2718505859375,0.33469927310943604,10.633565902709961,0.1348387897014618,328.3587341308594,3.472233295440674,89.51752471923828,0.0,0.0,0.0,3.9700000286102295
8676,1,86136.4921875,22.8799991607666,1349.0181884765625,1349.2718505859375,0.43396997451782227,10.68104362487793,0.23868677020072937,328.2987976074219,3.442570447921753,89.40595245361328,0.0,0.0,0.0,3.9739999771118164
8706,1,86136.4921875,22.8799991607666,1349.0181884765625,1349.2718505859375,0.5379678606987,10.700034141540527,-0.0716375857591629,328.24920654296875,3.355999231338501,89.4782485961914,0.0,0.0,0.0,3.9739999771118164
8735,1,86136.4921875,22.8799991607666,1349.0181884765625,1349.2718505859375,0.4765145480632782,10.647809982299805,0.06281214952468872,328.20867919921875,3.2747137546539307,89.56163787841797,0.0,0.0,0.0,3.9700000286102295
8765,1,86136.4921875,22.8799991607666,1349.0181884765625,1349.2718505859375,0.3299720585346222,10.62407112121582,0.0772174820303917,328.1559753417969,3.32777738571167,89.60979461669922,0.0,0.0,0.0,3.9700000286102295
8795,1,86136.4921875,22.8799991607666,1349.0181884765625,1349.2718505859375,0.35360798239707947,10.643062591552734,0.25298482179641724,328.0921936035156,3.3884499073028564,89.53843688964844,0.0,0.0,0.0,3.9660000801086426
8825,1,86136.4921875,22.8799991607666,1349.0181884765625,1349.2718505859375,0.4386971592903137,10.738017082214355,0.07241570204496384,328.03729248046875,3.3816823959350586,89.48898315429688,0.0,0.0,0.0,3.9739999771118164
8855,1,86136.4921875,22.8799991607666,1349.0181884765625,1349.2718505859375,0.495423287153244,10.780746459960938,0.005190835800021887,327.991943359375,3.3326170444488525,89.58753967285156,0.0,0.0,0.0,3.9739999771118164
8885,1,86136.4921875,22.8799991607666,1349.0181884765625,1349.2718505859375,0.40087971091270447,10.647809982299805,0.08201925456523895,327.94061279296875,3.3432109355926514,89.5987548828125,0.0,0.0,0.0,3.9739999771118164
8916,1,86136.4921875,22.8799991607666,1349.0181884765625,1349.2718505859375,0.37724384665489197,10.62881851196289,0.23868677020072937,327.87457275390625,3.409940481185913,89.48097229003906,0.0,0.0,0.0,3.9700000286102295
8946,1,86136.4921875,22.8799991607666,1349.0181884765625,1349.2718505859375,0.3299720585346222,10.700034141540527,0.25298482179641724,327.806884765625,3.4489638805389404,89.37262725830078,0.0,0.0,0.0,3.9700000286102295
8975,1,86136.4921875,22.8799991607666,1349.0181884765625,1349.2718505859375,0.49069610238075256,10.728520393371582,-0.023619821295142174,327.7676696777344,3.361581325531006,89.45185852050781,0.0,0.0,0.0,3.9660000801086426
9005,1,86136.4921875,22.8799991607666,1349.0181884765625,1349.2718505859375,0.4670602083206177,10.647809982299805,0.053208597004413605,327.71905517578125,3.340242385864258,89.48438262939453,0.0,0.0,0.0,3.9660000801086426
9041,1,86136.4921875,22.8799991607666,1349.0181884765625,1349.2718505859375,0.5001504421234131,10.638313293457031,0.1444423496723175,327.6383972167969,3.3219261169433594,89.43788146972656,0.0,0.0,0.0,3.9700000286102295
9076,1,86136.4921875,22.8799991607666,1349.0181884765625,1349.2718505859375,0.39142537117004395,10.67629623413086,0.25775083899497986,327.5732421875,3.34592866897583,89.31683349609375,0.0,0.0,0.0,3.9700000286102295
9105,1,86136.4921875,22.8799991607666,1349.0181884765625,1349.2718505859375,0.47178739309310913,10.761754989624023,0.019596165046095848,327.5291442871094,3.3372464179992676,89.41605377197266,0.0,0.0,0.0,3.9739999771118164
9136,1,86136.4921875,22.8799991607666,1349.0181884765625,1349.2718505859375,0.47178739309310913,10.614575386047363,0.10122635960578918,327.47747802734375,3.289851188659668,89.4603271484375,0.0,0.0,0.0,3.9779999256134033
9166,1,86136.4921875,22.8799991607666,1349.0181884765625,1349.2718505859375,0.49069610238075256,10.719025611877441,0.09162279963493347,327.4261779785156,3.1884195804595947,89.48651885986328,0.0,0.0,0.0,3.9739999771118164
9196,1,86136.4921875,22.8799991607666,1349.0181884765625,1349.2718505859375,0.4292428195476532,10.695286750793457,0.09642458707094193,327.3766784667969,3.1519758701324463,89.49311065673828,0.0,0.0,0.0,3.9700000286102295
9216,1,86136.4921875,22.8799991607666,1349.0181884765625,1349.2718505859375,0.4292428195476532,10.67629623413086,0.1348387897014618,327.34271240234375,3.151862382888794,89.4818344116211,0.0,0.0,0.0,3.9700000286102295
9246,1,86133.8125,22.8799991607666,1349.2718505859375,1349.2718505859375,0.35360798239707947,10.671547889709473,0.09642458707094193,327.2903137207031,3.2178874015808105,89.47354888916016,0.0,0.0,0.0,3.9739999771118164
9276,1,86133.8125,22.8799991607666,1349.2718505859375,1349.2718505859375,0.3725166916847229,10.7095308303833,0.09162279963493347,327.2381286621094,3.247638463973999,89.47903442382812,0.0,0.0,0.0,3.9739999771118164
9305,1,86133.8125,22.8799991607666,1349.2718505859375,1349.2718505859375,0.4434243440628052,10.714278221130371,0.1108299046754837,327.17919921875,3.235039710998535,89.49043273925781,0.0,0.0,0.0,3.9739999771118164
9336,1,86133.8125,22.8799991607666,1349.2718505859375,1349.2718505859375,0.4056069254875183,10.662052154541016,0.11563169211149216,327.1305236816406,3.199260711669922,89.4904556274414,0.0,0.0,0.0,3.9700000286102295
9366,1,86133.8125,22.8799991607666,1349.2718505859375,1349.2718505859375,0.33469927310943604,10.700034141540527,0.13003700971603394,327.0754089355469,3.248265266418457,89.46083068847656,0.0,0.0,0.0,3.9739999771118164
9396,1,86133.8125,22.8799991607666,1349.2718505859375,1349.2718505859375,0.3394264578819275,10.714278221130371,0.09642458707094193,327.0289001464844,3.2910244464874268,89.46510314941406,0.0,0.0,0.0,3.9739999771118164
9426,1,86133.8125,22.8799991607666,1349.2718505859375,1349.2718505859375,0.43396997451782227,10.647809982299805,0.1108299046754837,326.9781188964844,3.2422168254852295,89.46400451660156,0.0,0.0,0.0,3.9779999256134033
9456,1,86133.8125,22.8799991607666,1349.2718505859375,1349.2718505859375,0.4434243440628052,10.638313293457031,0.11563169211149216,326.9251403808594,3.2111730575561523,89.44603729248047,0.0,0.0,0.0,3.9739999771118164
9485,1,86133.8125,22.8799991607666,1349.2718505859375,1349.2718505859375,0.4528786838054657,10.67629623413086,0.10602813214063644,326.8710021972656,3.1905887126922607,89.46546173095703,0.0,0.0,0.0,3.9779999256134033
9522,1,86133.8125,22.8799991607666,1349.2718505859375,1349.2718505859375,0.40087971091270447,10.671547889709473,0.13964056968688965,326.8034362792969,3.192716360092163,89.43834686279297,0.0,0.0,0.0,3.9779999256134033
9545,1,86133.8125,22.8799991607666,1349.2718505859375,1349.2718505859375,0.4197884500026703,10.752259254455566,0.12523524463176727,326.7657470703125,3.197451114654541,89.4195556640625,0.0,0.0,0.0,3.9779999256134033
9575,1,86133.8125,22.8799991607666,1349.2718505859375,1349.2718505859375,0.4434243440628052,10.590836524963379,0.1481325477361679,326.7112121582031,3.165691375732422,89.43341827392578,0.0,0.0,0.0,3.9779999256134033
9596,1,86133.8125,22.8799991607666,1349.2718505859375,1349.2718505859375,0.49069610238075256,10.62881851196289,0.1444423496723175,326.6739807128906,3.135507345199585,89.42024230957031,0.0,0.0,0.0,3.9739999771118164
9626,1,86133.8125,22.8799991607666,1349.2718505859375,1349.2718505859375,0.48124176263809204,10.62881851196289,0.10122635960578918,326.61798095703125,3.0919673442840576,89.42184448242188,0.0,0.0,0.0,3.9779999256134033
9655,1,86133.8125,22.8799991607666,1349.2718505859375,1349.2718505859375,0.3866981863975525,10.690539360046387,0.12043346464633942,326.55865478515625,3.126269578933716,89.42333984375,0.0,0.0,0.0,3.9779999256134033
9686,1,86133.8125,22.8799991607666,1349.2718505859375,1349.2718505859375,0.3725166916847229,10.752259254455566,0.12523524463176727,326.4999694824219,3.198737144470215,89.41918182373047,0.0,0.0,0.0,3.9779999256134033
9715,1,86133.8125,22.8799991607666,1349.2718505859375,1349.2718505859375,0.39142537117004395,10.586089134216309,0.08682102710008621,326.4454650878906,3.243035316467285,89.4205551147461,0.0,0.0,0.0,3.9779999256134033
9746,1,86133.8125,22.8799991607666,1349.2718505859375,1349.2718505859375,0.43396997451782227,10.62881851196289,0.0772174820303917,326.3927307128906,3.2316079139709473,89.4437026977539,0.0,0.0,0.0,3.9779999256134033
9775,1,86133.8125,22.8799991607666,1349.2718505859375,1349.2718505859375,0.43396997451782227,10.742764472961426,0.11563169211149216,326.3521423339844,3.154379367828369,89.44953918457031,0.0,0.0,0.0,3.9779999256134033
9806,1,86133.8125,22.8799991607666,1349.2718505859375,1349.2718505859375,0.348880797624588,10.723773002624512,0.1348387897014618,326.3092956542969,3.1585309505462646,89.4440689086914,0.0,0.0,0.0,3.9739999771118164
9836,1,86133.8125,22.8799991607666,1349.2718505859375,1349.2718505859375,0.37724384665489197,10.657304763793945,0.13964056968688965,326.255859375,3.1461400985717773,89.44447326660156,0.0,0.0,0.0,3.9779999256134033
9865,1,86133.8125,22.8799991607666,1349.2718505859375,1349.2718505859375,0.4150612950325012,10.671547889709473,0.10602813214063644,326.2084655761719,3.129387855529785,89.46678161621094,0.0,0.0,0.0,3.9779999256134033
9896,1,86133.8125,22.8799991607666,1349.2718505859375,1349.2718505859375,0.44815149903297424,10.690539360046387,0.0772174820303917,326.1622009277344,3.06596040725708,89.5034408569336,0.0,0.0,0.0,3.9779999256134033
9926,1,86133.8125,22.8799991607666,1349.2718505859375,1349.2718505859375,0.4528786838054657,10.690539360046387,0.09162279963493347,326.1163330078125,3.0222113132476807,89.53521728515625,0.0,0.0,0.0,3.9779999256134033
9955,1,86133.8125,22.8799991607666,1349.2718505859375,1349.2718505859375,0.4150612950325012,10.671547889709473,0.08682102710008621,326.06561279296875,3.0052590370178223,89.547607421875,0.0,0.0,0.0,3.9779999256134033
9985,1,86133.8125,22.8799991607666,1349.2718505859375,1349.2718505859375,0.4197884500026703,10.609827041625977,0.1481325477361679,326.0067443847656,3.0924692153930664,89.48424530029297,0.0,0.0,0.0,3.9700000286102295
10046,1,86133.8125,22.8799991607666,1349.2718505859375,1349.2718505859375,0.4670602083206177,10.643062591552734,0.10602813214063644,325.90509033203125,3.055734872817993,89.46723937988281,0.0,0.0,0.0,3.9739999771118164
10076,1,86133.8125,22.8799991607666,1349.2718505859375,1349.2718505859375,0.45760586857795715,10.685791015625,0.12043346464633942,325.8430480957031,3.057814121246338,89.46273803710938,0.0,0.0,0.0,3.9700000286102295
10106,1,86133.8125,22.8799991607666,1349.2718505859375,1349.2718505859375,0.40087971091270447,10.657304763793945,0.07241570204496384,325.7845153808594,3.110553026199341,89.475830078125,0.0,0.0,0.0,3.9739999771118164
10135,1,86133.8125,22.8799991607666,1349.2718505859375,1349.2718505859375,0.3866981863975525,10.68104362487793,0.13964056968688965,325.7254638671875,3.1501142978668213,89.43190002441406,0.0,0.0,0.0,3.9739999771118164
10165,1,86133.8125,22.8799991607666,1349.2718505859375,1349.2718505859375,0.4150612950325012,10.67629623413086,0.10602813214063644,325.6742248535156,3.1593286991119385,89.43551635742188,0.0,0.0,0.0,3.9739999771118164
10195,1,86133.8125,22.8799991607666,1349.2718505859375,1349.2718505859375,0.4150612950325012,10.666800498962402,0.1108299046754837,325.6190185546875,3.171211004257202,89.42293548583984,0.0,0.0,0.0,3.9739999771118164
10226,1,86133.8125,22.8799991607666,1349.2718505859375,1349.2718505859375,0.41033411026000977,10.700034141540527,0.12043346464633942,325.5596618652344,3.183973789215088,89.40813446044922,0.0,0.0,0.0,3.9739999771118164
10256,1,86131.140625,22.8799991607666,1349.5255126953125,1349.5255126953125,0.4056069254875183,10.633565902709961,0.13003700971603394,325.5109558105469,3.1806578636169434,89.3798828125,0.0,0.0,0.0,3.9739999771118164
10286,1,86133.8125,22.8799991607666,1349.2718505859375,1349.5255126953125,0.35360798239707947,10.638313293457031,0.17196261882781982,325.45880126953125,3.2250826358795166,89.35432434082031,0.0,0.0,0.0,3.9739999771118164
10316,1,86133.8125,22.8799991607666,1349.2718505859375,1349.5255126953125,0.3725166916847229,10.719025611877441,0.11563169211149216,325.3974914550781,3.2512154579162598,89.35994720458984,0.0,0.0,0.0,3.9779999256134033
10345,1,86133.8125,22.8799991607666,1349.2718505859375,1349.5255126953125,0.4670602083206177,10.67629623413086,0.08201925456523895,325.3462219238281,3.2022438049316406,89.39601135253906,0.0,0.0,0.0,3.9779999256134033
10376,1,86133.8125,22.8799991607666,1349.2718505859375,1349.5255126953125,0.43396997451782227,10.704781532287598,0.13003700971603394,325.2987365722656,3.137979507446289,89.42476654052734,0.0,0.0,0.0,3.9779999256134033
10406,1,86133.8125,22.8799991607666,1349.2718505859375,1349.5255126953125,0.4197884500026703,10.595584869384766,0.0772174820303917,325.2503662109375,3.106565237045288,89.4454574584961,0.0,0.0,0.0,3.9739999771118164
10435,1,86133.8125,22.8799991607666,1349.2718505859375,1349.5255126953125,0.39142537117004395,10.62881851196289,0.08201925456523895,325.19354248046875,3.150789976119995,89.42977142333984,0.0,0.0,0.0,3.9779999256134033
10465,1,86133.8125,22.8799991607666,1349.2718505859375,1349.5255126953125,0.4197884500026703,10.666800498962402,0.12043346464633942,325.1364440917969,3.148347854614258,89.43333435058594,0.0,0.0,0.0,3.9779999256134033
10496,1,86133.8125,22.8799991607666,1349.2718505859375,1349.5255126953125,0.4765145480632782,10.662052154541016,0.08682102710008621,325.08819580078125,3.102743148803711,89.443603515625,0.0,0.0,0.0,3.9739999771118164
10535,1,86133.8125,22.8799991607666,1349.2718505859375,1349.5255126953125,0.4528786838054657,10.685791015625,0.1108299046754837,325.0220031738281,3.045548439025879,89.42770385742188,0.0,0.0,0.0,3.9739999771118164
10565,1,86133.8125,22.8799991607666,1349.2718505859375,1349.5255126953125,0.3866981863975525,10.671547889709473,0.11563169211149216,324.96502685546875,3.077208995819092,89.39302062988281,0.0,0.0,0.0,3.9779999256134033
10595,1,86133.8125,22.8799991607666,1349.2718505859375,1349.5255126953125,0.36778950691223145,10.671547889709473,0.12523524463176727,324.9078674316406,3.1317460536956787,89.35235595703125,0.0,0.0,0.0,3.9739999771118164
10626,1,86133.8125,22.8799991607666,1349.2718505859375,1349.5255126953125,0.42451563477516174,10.714278221130371,0.10122635960578918,324.8531799316406,3.142326593399048,89.36145782470703,0.0,0.0,0.0,3.9779999256134033
10656,1,86133.8125,22.8799991607666,1349.2718505859375,1349.5255126953125,0.4150612950325012,10.662052154541016,0.09162279963493347,324.8032531738281,3.1019906997680664,89.3582992553711,0.0,0.0,0.0,3.9779999256134033
10685,1,86133.8125,22.8799991607666,1349.2718505859375,1349.5255126953125,0.42451563477516174,10.652557373046875,0.12043346464633942,324.7546081542969,3.096918821334839,89.35562896728516,0.0,0.0,0.0,3.9779999256134033
10715,1,86133.8125,22.8799991607666,1349.2718505859375,1349.5255126953125,0.36778950691223145,10.647809982299805,0.13964056968688965,324.69866943359375,3.148169994354248,89.34353637695312,0.0,0.0,0.0,3.9739999771118164
10736,1,86133.8125,22.8799991607666,1349.2718505859375,1349.5255126953125,0.36778950691223145,10.68104362487793,0.1444423496723175,324.66278076171875,3.1782925128936768,89.34400177001953,0.0,0.0,0.0,3.9779999256134033
10766,1,86133.8125,22.8799991607666,1349.2718505859375,1349.5255126953125,0.42451563477516174,10.62881851196289,0.12043346464633942,324.6054382324219,3.1852924823760986,89.33207702636719,0.0,0.0,0.0,3.9779999256134033
10795,1,86133.8125,22.8799991607666,1349.2718505859375,1349.5255126953125,0.495423287153244,10.633565902709961,0.12523524463176727,324.556396484375,3.0730860233306885,89.3396224975586,0.0,0.0,0.0,3.9779999256134033
10826,1,86133.8125,22.8799991607666,1349.2718505859375,1349.5255126953125,0.42451563477516174,10.662052154541016,0.09642458707094193,324.4984436035156,3.0617129802703857,89.34437561035156,0.0,0.0,0.0,3.9779999256134033
10855,1,86133.8125,22.8799991607666,1349.2718505859375,1349.5255126953125,0.3961525559425354,10.647809982299805,0.09162279963493347,324.4424133300781,3.0678329467773438,89.3666763305664,0.0,0.0,0.0,3.9779999256134033
10885,1,86133.8125,22.8799991607666,1349.2718505859375,1349.5255126953125,0.41033411026000977,10.62407112121582,0.10602813214063644,324.38421630859375,3.0944511890411377,89.3775634765625,0.0,0.0,0.0,3.9779999256134033
10915,1,86133.8125,22.8799991607666,1349.2718505859375,1349.5255126953125,0.4150612950325012,10.695286750793457,0.12043346464633942,324.32122802734375,3.1311492919921875,89.40483856201172,0.0,0.0,0.0,3.9800000190734863
10945,1,86133.8125,22.8799991607666,1349.2718505859375,1349.5255126953125,0.44815149903297424,10.666800498962402,0.10122635960578918,324.2604675292969,3.117366075515747,89.42919158935547,0.0,0.0,0.0,3.9779999256134033
10975,1,86133.8125,22.8799991607666,1349.2718505859375,1349.5255126953125,0.4386971592903137,10.614575386047363,0.11563169211149216,324.2001037597656,3.122971773147583,89.42951965332031,0.0,0.0,0.0,3.9779999256134033
11015,1,86133.8125,22.8799991607666,1349.2718505859375,1349.5255126953125,0.40087971091270447,10.647809982299805,0.1481325477361679,324.11138916015625,3.1705541610717773,89.42387390136719,0.0,0.0,0.0,3.9739999771118164
11046,1,86133.8125,22.8799991607666,1349.2718505859375,1349.5255126953125,0.348880797624588,10.581341743469238,0.12043346464633942,324.05303955078125,3.2116811275482178,89.3990249633789,0.0,0.0,0.0,3.9739999771118164
11075,1,86133.8125,22.8799991607666,1349.2718505859375,1349.5255126953125,0.3725166916847229,10.652557373046875,0.09642458707094193,324.0002136230469,3.20735764503479,89.39990997314453,0.0,0.0,0.0,3.9779999256134033
11105,1,86133.8125,22.8799991607666,1349.2718505859375,1349.5255126953125,0.4056069254875183,10.685791015625,0.06281214952468872,323.9525146484375,3.1829681396484375,89.41716766357422,0.0,0.0,0.0,3.9779999256134033
11135,1,86133.8125,22.8799991607666,1349.2718505859375,1349.5255126953125,0.4150612950325012,10.685791015625,0.10602813214063644,323.9033508300781,3.1603171825408936,89.40612030029297,0.0,0.0,0.0,3.9779999256134033
11166,1,86133.8125,22.8799991607666,1349.2718505859375,1349.5255126953125,0.3725166916847229,10.690539360046387,0.12523524463176727,323.84991455078125,3.172999620437622,89.39095306396484,0.0,0.0,0.0,3.9739999771118164
11196,1,86133.8125,22.8799991607666,1349.2718505859375,1349.5255126953125,0.39142537117004395,10.614575386047363,0.1348387897014618,323.784912109375,3.2509281635284424,89.34626007080078,0.0,0.0,0.0,3.9739999771118164
11226,1,86133.8125,22.8799991607666,1349.2718505859375,1349.5255126953125,0.4528786838054657,10.643062591552734,0.13964056968688965,323.723876953125,3.2146122455596924,89.3261489868164,0.0,0.0,0.0,3.9779999256134033
11255,1,86133.8125,22.8799991607666,1349.2718505859375,1349.5255126953125,0.4859689474105835,10.714278221130371,0.0772174820303917,323.66595458984375,3.13618540763855,89.32793426513672,0.0,0.0,0.0,3.9779999256134033
11286,1,86133.8125,22.8799991607666,1349.2718505859375,1349.5255126953125,0.4386971592903137,10.643062591552734,0.09162279963493347,323.6060485839844,3.1097168922424316,89.33411407470703,0.0,0.0,0.0,3.9739999771118164
11306,1,86133.8125,22.8799991607666,1349.2718505859375,1349.5255126953125,0.41033411026000977,10.67629623413086,0.07241570204496384,323.56884765625,3.1303420066833496,89.34796142578125,0.0,0.0,0.0,3.9779999256134033
11335,1,86133.8125,22.8799991607666,1349.2718505859375,1349.5255126953125,0.3866981863975525,10.567097663879395,0.11563169211149216,323.5120849609375,3.130100965499878,89.33218383789062,0.0,0.0,0.0,3.9739999771118164
11365,1,86133.8125,22.8799991607666,1349.2718505859375,1349.5255126953125,0.4292428195476532,10.7095308303833,0.10122635960578918,323.45819091796875,3.1248562335968018,89.32892608642578,0.0,0.0,0.0,3.9739999771118164
11395,1,86133.8125,22.8799991607666,1349.2718505859375,1349.5255126953125,0.42451563477516174,10.690539360046387,0.13003700971603394,323.4010009765625,3.1200833320617676,89.32169342041016,0.0,0.0,0.0,3.9739999771118164
11426,1,86133.8125,22.8799991607666,1349.2718505859375,1349.5255126953125,0.4386971592903137,10.695286750793457,0.1108299046754837,323.344970703125,3.0982303619384766,89.33081817626953,0.0,0.0,0.0,3.9739999771118164
11455,1,86133.8125,22.8799991607666,1349.2718505859375,1349.5255126953125,0.39142537117004395,10.662052154541016,0.13003700971603394,323.28680419921875,3.1027705669403076,89.31564331054688,0.0,0.0,0.0,3.9779999256134033
11496,1,86133.8125,22.8799991607666,1349.2718505859375,1349.5255126953125,0.3725166916847229,10.704781532287598,0.12043346464633942,323.2044372558594,3.1698222160339355,89.32534790039062,0.0,0.0,0.0,3.9779999256134033
11526,1,86133.8125,22.8799991607666,1349.2718505859375,1349.5255126953125,0.4056069254875183,10.690539360046387,0.08201925456523895,323.15032958984375,3.195910930633545,89.34380340576172,0.0,0.0,0.0,3.9779999256134033
11556,1,86133.8125,22.8799991607666,1349.2718505859375,1349.5255126953125,0.42451563477516174,10.67629623413086,0.11563169211149216,323.1013488769531,3.1673903465270996,89.34469604492188,0.0,0.0,0.0,3.9779999256134033
11586,1,86133.8125,22.8799991607666,1349.2718505859375,1349.5255126953125,0.39142537117004395,10.633565902709961,0.12043346464633942,323.0572814941406,3.13114595413208,89.33924102783203,0.0,0.0,0.0,3.9779999256134033
11616,1,86133.8125,22.8799991607666,1349.2718505859375,1349.5255126953125,0.3961525559425354,10.685791015625,0.10602813214063644,323.001220703125,3.146066665649414,89.34039306640625,0.0,0.0,0.0,3.9779999256134033
11646,1,86133.8125,22.8799991607666,1349.2718505859375,1349.5255126953125,0.41033411026000977,10.666800498962402,0.1108299046754837,322.9464111328125,3.127498149871826,89.3299789428711,0.0,0.0,0.0,3.9779999256134033
11675,1,86133.8125,22.8799991607666,1349.2718505859375,1349.5255126953125,0.4434243440628052,10.638313293457031,0.15289856493473053,322.883544921875,3.107748508453369,89.31391906738281,0.0,0.0,0.0,3.9779999256134033
11696,1,86133.8125,22.8799991607666,1349.2718505859375,1349.5255126953125,0.44815149903297424,10.700034141540527,0.08201925456523895,322.8497619628906,3.088939666748047,89.32506561279297,0.0,0.0,0.0,3.9779999256134033
11725,1,86133.8125,22.8799991607666,1349.2718505859375,1349.5255126953125,0.4623330235481262,10.633565902709961,0.11563169211149216,322.7904968261719,3.0435683727264404,89.33955383300781,0.0,0.0,0.0,3.9779999256134033
11755,1,86133.8125,22.8799991607666,1349.2718505859375,1349.5255126953125,0.4150612950325012,10.586089134216309,0.09162279963493347,322.7351989746094,2.9994421005249023,89.33204650878906,0.0,0.0,0.0,3.9779999256134033
11785,1,86133.8125,22.8799991607666,1349.2718505859375,1349.5255126953125,0.4528786838054657,10.690539360046387,0.10122635960578918,322.678466796875,2.9889280796051025,89.33065795898438,0.0,0.0,0.0,3.9739999771118164
11816,1,86133.8125,22.8799991607666,1349.2718505859375,1349.5255126953125,0.4670602083206177,10.638313293457031,0.13964056968688965,322.6203918457031,3.0070528984069824,89.31551361083984,0.0,0.0,0.0,3.9739999771118164
11845,1,86133.8125,22.8799991607666,1349.2718505859375,1349.5255126953125,0.4150612950325012,10.68104362487793,0.10122635960578918,322.5707702636719,2.999281406402588,89.30738067626953,0.0,0.0,0.0,3.9779999256134033
11875,1,86133.8125,22.8799991607666,1349.2718505859375,1349.5255126953125,0.4197884500026703,10.700034141540527,0.1671966016292572,322.51055908203125,3.02384090423584,89.25245666503906,0.0,0.0,0.0,3.9779999256134033
11905,1,86133.8125,22.8799991607666,1349.2718505859375,1349.5255126953125,0.36778950691223145,10.704781532287598,0.19102667272090912,322.4486083984375,3.047261953353882,89.22240447998047,0.0,0.0,0.0,3.9779999256134033
11935,1,86133.8125,22.8799991607666,1349.2718505859375,1349.5255126953125,0.37724384665489197,10.671547889709473,0.13964056968688965,322.3858642578125,3.11057710647583,89.21017456054688,0.0,0.0,0.0,3.9779999256134033
11975,1,86133.8125,22.8799991607666,1349.2718505859375,1349.5255126953125,0.4434243440628052,10.657304763793945,0.09162279963493347,322.3005065917969,3.1392362117767334,89.24264526367188,0.0,0.0,0.0,3.9779999256134033
12006,1,86133.8125,22.8799991607666,1349.2718505859375,1349.5255126953125,0.41033411026000977,10.695286750793457,0.1444423496723175,322.2417907714844,3.153669834136963,89.23602294921875,0.0,0.0,0.0,3.9739999771118164
12036,1,86133.8125,22.8799991607666,1349.2718505859375,1349.5255126953125,0.4292428195476532,10.638313293457031,0.04360504448413849,322.1883544921875,3.1536219120025635,89.26327514648438,0.0,0.0,0.0,3.9779999256134033
12065,1,86133.8125,22.8799991607666,1349.2718505859375,1349.5255126953125,0.36778950691223145,10.685791015625,0.10122635960578918,322.1360778808594,3.182562828063965,89.26724243164062,0.0,0.0,0.0,3.9779999256134033
12096,1,86133.8125,22.8799991607666,1349.2718505859375,1349.5255126953125,0.4150612950325012,10.685791015625,0.12523524463176727,322.08392333984375,3.1681787967681885,89.2835464477539,0.0,0.0,0.0,3.9739999771118164
12125,1,86133.8125,22.8799991607666,1349.2718505859375,1349.5255126953125,0.47178739309310913,10.662052154541016,0.10122635960578918,322.0249938964844,3.1356451511383057,89.280517578125,0.0,0.0,0.0,3.9779999256134033
12156,1,86133.8125,22.8799991607666,1349.2718505859375,1349.5255126953125,0.48124176263809204,10.638313293457031,0.08682102710008621,321.9647216796875,3.0933053493499756,89.27852630615234,0.0,0.0,0.0,3.9739999771118164
12186,1,86136.4921875,22.8799991607666,1349.0181884765625,1349.5255126953125,0.4386971592903137,10.704781532287598,0.08201925456523895,321.90869140625,3.0382606983184814,89.28875732421875,0.0,0.0,0.0,3.9739999771118164
12215,1,86133.8125,22.8799991607666,1349.2718505859375,1349.5255126953125,0.4386971592903137,10.633565902709961,0.05801037326455116,321.85223388671875,3.0563230514526367,89.29520416259766,0.0,0.0,0.0,3.9700000286102295
12246,1,86133.8125,22.8799991607666,1349.2718505859375,1349.5255126953125,0.3961525559425354,10.67629623413086,0.10602813214063644,321.7923889160156,3.0707194805145264,89.28816223144531,0.0,0.0,0.0,3.9739999771118164
12266,1,86133.8125,22.8799991607666,1349.2718505859375,1349.5255126953125,0.4292428195476532,10.666800498962402,0.11563169211149216,321.7616271972656,3.0459229946136475,89.27268981933594,0.0,0.0,0.0,3.9779999256134033
12296,1,86133.8125,22.8799991607666,1349.2718505859375,1349.5255126953125,0.48124176263809204,10.614575386047363,0.08682102710008621,321.7067565917969,3.0161802768707275,89.2778091430664,0.0,0.0,0.0,3.9779999256134033
12326,1,86133.8125,22.8799991607666,1349.2718505859375,1349.5255126953125,0.4197884500026703,10.647809982299805,0.15766456723213196,321.6484375,3.03822660446167,89.24772644042969,0.0,0.0,0.0,3.9779999256134033
12356,1,86133.8125,22.8799991607666,1349.2718505859375,1349.5255126953125,0.36778950691223145,10.657304763793945,0.1444423496723175,321.58795166015625,3.059053897857666,89.20761108398438,0.0,0.0,0.0,3.9779999256134033
12385,1,86133.8125,22.8799991607666,1349.2718505859375,1349.5255126953125,0.3725166916847229,10.723773002624512,0.1348387897014618,321.52642822265625,3.1140501499176025,89.1933364868164,0.0,0.0,0.0,3.9739999771118164
12416,1,86136.4921875,22.8799991607666,1349.0181884765625,1349.5255126953125,0.3961525559425354,10.633565902709961,0.1108299046754837,321.46966552734375,3.106318712234497,89.2020492553711,0.0,0.0,0.0,3.9779999256134033
12455,1,86133.8125,22.8799991607666,1349.2718505859375,1349.5255126953125,0.4386971592903137,10.7095308303833,0.10602813214063644,321.3847961425781,3.125603437423706,89.234130859375,0.0,0.0,0.0,3.9779999256134033
12485,1,86133.8125,22.8799991607666,1349.2718505859375,1349.5255126953125,0.39142537117004395,10.662052154541016,0.1348387897014618,321.3304443359375,3.1004841327667236,89.24180603027344,0.0,0.0,0.0,3.9779999256134033
12516,1,86133.8125,22.8799991607666,1349.2718505859375,1349.5255126953125,0.4386971592903137,10.647809982299805,0.12043346464633942,321.27001953125,3.1036698818206787,89.24758911132812,0.0,0.0,0.0,3.9779999256134033
12546,1,86133.8125,22.8799991607666,1349.2718505859375,1349.5255126953125,0.4197884500026703,10.657304763793945,0.1671966016292572,321.2171936035156,3.059859275817871,89.22199249267578,0.0,0.0,0.0,3.9779999256134033
12575,1,86133.8125,22.8799991607666,1349.2718505859375,1349.5255126953125,0.44815149903297424,10.68104362487793,0.12043346464633942,321.1575622558594,3.0460872650146484,89.19440460205078,0.0,0.0,0.0,3.9779999256134033
12606,1,86133.8125,22.8799991607666,1349.2718505859375,1349.5255126953125,0.5001504421234131,10.771249771118164,0.11563169211149216,321.0917053222656,3.0147714614868164,89.1891860961914,0.0,0.0,0.0,3.9739999771118164
12635,1,86133.8125,22.8799991607666,1349.2718505859375,1349.5255126953125,0.3961525559425354,10.647809982299805,0.1108299046754837,321.0357360839844,3.0147783756256104,89.20816040039062,0.0,0.0,0.0,3.9779999256134033
12666,1,86133.8125,22.8799991607666,1349.2718505859375,1349.5255126953125,0.41033411026000977,10.690539360046387,0.06281214952468872,320.97637939453125,3.0144448280334473,89.21014404296875,0.0,0.0,0.0,3.9779999256134033
12696,1,86133.8125,22.8799991607666,1349.2718505859375,1349.5255126953125,0.4528786838054657,10.62407112121582,0.10602813214063644,320.9174499511719,3.0146090984344482,89.21697235107422,0.0,0.0,0.0,3.9779999256134033
12725,1,86133.8125,22.8799991607666,1349.2718505859375,1349.5255126953125,0.4150612950325012,10.609827041625977,0.1348387897014618,320.8617248535156,2.99934983253479,89.22962188720703,0.0,0.0,0.0,3.9779999256134033
12755,1,86133.8125,22.8799991607666,1349.2718505859375,1349.5255126953125,0.4150612950325012,10.719025611877441,0.09642458707094193,320.8046875,3.02864408493042,89.23938751220703,0.0,0.0,0.0,3.9739999771118164
12786,1,86133.8125,22.8799991607666,1349.2718505859375,1349.5255126953125,0.41033411026000977,10.647809982299805,0.1108299046754837,320.7425537109375,3.04844331741333,89.23853302001953,0.0,0.0,0.0,3.9779999256134033
12815,1,86133.8125,22.8799991607666,1349.2718505859375,1349.5255126953125,0.39142537117004395,10.7095308303833,0.1481325477361679,320.67633056640625,3.086634635925293,89.20001983642578,0.0,0.0,0.0,3.9779999256134033
12836,1,86133.8125,22.8799991607666,1349.2718505859375,1349.5255126953125,0.35360798239707947,10.605079650878906,0.17196261882781982,320.6358947753906,3.0960705280303955,89.18365478515625,0.0,0.0,0.0,3.9779999256134033
12866,1,86133.8125,22.8799991607666,1349.2718505859375,1349.5255126953125,0.4197884500026703,10.666800498962402,0.09162279963493347,320.5794372558594,3.1015067100524902,89.18721771240234,0.0,0.0,0.0,3.9779999256134033
12896,1,86133.8125,22.8799991607666,1349.2718505859375,1349.5255126953125,0.4292428195476532,10.666800498962402,0.0772174820303917,320.52197265625,3.0993247032165527,89.2049331665039,0.0,0.0,0.0,3.9779999256134033
12936,1,86133.8125,22.8799991607666,1349.2718505859375,1349.5255126953125,0.40087971091270447,10.652557373046875,0.11563169211149216,320.4515380859375,3.0648422241210938,89.22874450683594,0.0,0.0,0.0,3.9779999256134033
12965,1,86133.8125,22.8799991607666,1349.2718505859375,1349.5255126953125,0.36778950691223145,10.647809982299805,0.1671966016292572,320.39959716796875,3.0679116249084473,89.21658325195312,0.0,0.0,0.0,3.9779999256134033
12996,1,86133.8125,22.8799991607666,1349.2718505859375,1349.5255126953125,0.4765145480632782,10.657304763793945,0.13964056968688965,320.3390197753906,3.046996831893921,89.20957946777344,0.0,0.0,0.0,3.9779999256134033
13025,1,86133.8125,22.8799991607666,1349.2718505859375,1349.5255126953125,0.4292428195476532,10.700034141540527,0.12043346464633942,320.278564453125,3.0310277938842773,89.1843490600586,0.0,0.0,0.0,3.9779999256134033
13055,1,86133.8125,22.8799991607666,1349.2718505859375,1349.5255126953125,0.4670602083206177,10.605079650878906,0.12523524463176727,320.2146911621094,3.0064492225646973,89.17576599121094,0.0,0.0,0.0,3.9779999256134033
13085,1,86133.8125,22.8799991607666,1349.2718505859375,1349.5255126953125,0.4434243440628052,10.657304763793945,0.11563169211149216,320.15216064453125,2.9921443462371826,89.1854248046875,0.0,0.0,0.0,3.9739999771118164
13115,1,86133.8125,22.8799991607666,1349.2718505859375,1349.5255126953125,0.3819710314273834,10.690539360046387,0.1481325477361679,320.08209228515625,3.0182747840881348,89.1773452758789,0.0,0.0,0.0,3.9739999771118164
13146,1,86133.8125,22.8799991607666,1349.2718505859375,1349.5255126953125,0.43396997451782227,10.657304763793945,0.11563169211149216,320.0205383300781,3.0151662826538086,89.18476104736328,0.0,0.0,0.0,3.9739999771118164
13176,1,86133.8125,22.8799991607666,1349.2718505859375,1349.5255126953125,0.4434243440628052,10.67629623413086,0.09642458707094193,319.959716796875,3.0089833736419678,89.17072296142578,0.0,0.0,0.0,3.9739999771118164
13206,1,86133.8125,22.8799991607666,1349.2718505859375,1349.5255126953125,0.42451563477516174,10.738017082214355,0.10602813214063644,319.904296875,3.000690460205078,89.15327453613281,0.0,0.0,0.0,3.9739999771118164
13236,1,86133.8125,22.8799991607666,1349.2718505859375,1349.5255126953125,0.3961525559425354,10.714278221130371,0.1348387897014618,319.83441162109375,3.0444610118865967,89.12351989746094,0.0,0.0,0.0,3.9739999771118164
13265,1,86133.8125,22.8799991607666,1349.2718505859375,1349.5255126953125,0.35360798239707947,10.700034141540527,0.12043346464633942,319.7784118652344,3.0796353816986084,89.11653900146484,0.0,0.0,0.0,3.9739999771118164
13296,1,86133.8125,22.8799991607666,1349.2718505859375,1349.5255126953125,0.3725166916847229,10.652557373046875,0.10122635960578918,319.7076721191406,3.160876512527466,89.1401138305664,0.0,0.0,0.0,3.9739999771118164
13326,1,86133.8125,22.8799991607666,1349.2718505859375,1349.5255126953125,0.4623330235481262,10.685791015625,0.09642458707094193,319.64666748046875,3.1272432804107666,89.15966033935547,0.0,0.0,0.0,3.9779999256134033
13355,1,86133.8125,22.8799991607666,1349.2718505859375,1349.5255126953125,0.4056069254875183,10.719025611877441,0.13003700971603394,319.5913391113281,3.0896220207214355,89.16940307617188,0.0,0.0,0.0,3.9739999771118164
13389,1,86133.8125,22.8799991607666,1349.2718505859375,1349.5255126953125,0.4197884500026703,10.757007598876953,0.12523524463176727,319.5352783203125,3.0969016551971436,89.18024444580078,0.0,0.0,0.0,3.9739999771118164
13425,1,86133.8125,22.8799991607666,1349.2718505859375,1349.5255126953125,0.3866981863975525,10.605079650878906,0.1108299046754837,319.45916748046875,3.079575538635254,89.18482208251953,0.0,0.0,0.0,3.9739999771118164
13456,1,86133.8125,22.8799991607666,1349.2718505859375,1349.5255126953125,0.4434243440628052,10.728520393371582,0.12523524463176727,319.4058837890625,3.0548508167266846,89.16910552978516,0.0,0.0,0.0,3.9779999256134033
13485,1,86133.8125,22.8799991607666,1349.2718505859375,1349.5255126953125,0.4765145480632782,10.662052154541016,0.07241570204496384,319.34686279296875,3.0212810039520264,89.18560791015625,0.0,0.0,0.0,3.9779999256134033
13516,1,86133.8125,22.8799991607666,1349.2718505859375,1349.5255126953125,0.43396997451782227,10.62881851196289,0.13964056968688965,319.290771484375,2.9811601638793945,89.17644500732422,0.0,0.0,0.0,3.9779999256134033
13546,1,86133.8125,22.8799991607666,1349.2718505859375,1349.5255126953125,0.43396997451782227,10.690539360046387,0.11563169211149216,319.22491455078125,2.995635747909546,89.17269134521484,0.0,0.0,0.0,3.9739999771118164
13576,1,86133.8125,22.8799991607666,1349.2718505859375,1349.5255126953125,0.3961525559425354,10.657304763793945,0.12043346464633942,319.1508483886719,3.0431203842163086,89.14420318603516,0.0,0.0,0.0,3.9779999256134033
13596,1,86133.8125,22.8799991607666,1349.2718505859375,1349.5255126953125,0.41033411026000977,10.638313293457031,0.10122635960578918,319.11224365234375,3.0170319080352783,89.1451187133789,0.0,0.0,0.0,3.9739999771118164
13625,1,86133.8125,22.8799991607666,1349.2718505859375,1349.5255126953125,0.4197884500026703,10.685791015625,0.09162279963493347,319.0547790527344,3.0080411434173584,89.15948486328125,0.0,0.0,0.0,3.9739999771118164
13655,1,86133.8125,22.8799991607666,1349.2718505859375,1349.5255126953125,0.43396997451782227,10.62407112121582,0.12043346464633942,318.99798583984375,2.996171236038208,89.14727020263672,0.0,0.0,0.0,3.9739999771118164
13686,1,86133.8125,22.8799991607666,1349.2718505859375,1349.5255126953125,0.3725166916847229,10.671547889709473,0.10122635960578918,318.9388732910156,3.0394132137298584,89.1399917602539,0.0,0.0,0.0,3.9739999771118164
13716,1,86133.8125,22.8799991607666,1349.2718505859375,1349.5255126953125,0.3725166916847229,10.647809982299805,0.13003700971603394,318.8767395019531,3.0901572704315186,89.13453674316406,0.0,0.0,0.0,3.9739999771118164
13745,1,86133.8125,22.8799991607666,1349.2718505859375,1349.5255126953125,0.3819710314273834,10.61932373046875,0.11563169211149216,318.8114013671875,3.1234333515167236,89.1360855102539,0.0,0.0,0.0,3.9739999771118164
13776,1,86133.8125,22.8799991607666,1349.2718505859375,1349.5255126953125,0.4197884500026703,10.62881851196289,0.12523524463176727,318.75262451171875,3.0962913036346436,89.11663818359375,0.0,0.0,0.0,3.9739999771118164
13806,1,86133.8125,22.8799991607666,1349.2718505859375,1349.5255126953125,0.43396997451782227,10.704781532287598,0.09162279963493347,318.6951599121094,3.060729742050171,89.12445068359375,0.0,0.0,0.0,3.9700000286102295
13836,1,86133.8125,22.8799991607666,1349.2718505859375,1349.5255126953125,0.36306232213974,10.609827041625977,0.09642458707094193,318.6356506347656,3.0605297088623047,89.1377944946289,0.0,0.0,0.0,3.9739999771118164
13866,1,86133.8125,22.8799991607666,1349.2718505859375,1349.5255126953125,0.37724384665489197,10.609827041625977,0.10122635960578918,318.5802001953125,3.072439670562744,89.13533782958984,0.0,0.0,0.0,3.9779999256134033
13906,1,86133.8125,22.8799991607666,1349.2718505859375,1349.5255126953125,0.4528786838054657,10.690539360046387,0.10122635960578918,318.4936218261719,3.051008462905884,89.11897277832031,0.0,0.0,0.0,3.9779999256134033
13936,1,86133.8125,22.8799991607666,1349.2718505859375,1349.5255126953125,0.4528786838054657,10.666800498962402,0.1108299046754837,318.42889404296875,3.043804407119751,89.106689453125,0.0,0.0,0.0,3.9779999256134033
13966,1,86131.140625,22.8799991607666,1349.5255126953125,1349.5255126953125,0.4386971592903137,10.643062591552734,0.12043346464633942,318.3675537109375,3.0045666694641113,89.11215209960938,0.0,0.0,0.0,3.9779999256134033
13996,1,86131.140625,22.8799991607666,1349.5255126953125,1349.5255126953125,0.4150612950325012,10.662052154541016,0.09162279963493347,318.3078918457031,2.9807753562927246,89.12527465820312,0.0,0.0,0.0,3.9739999771118164
14026,1,86133.8125,22.8799991607666,1349.2718505859375,1349.5255126953125,0.4150612950325012,10.742764472961426,0.09162279963493347,318.2489013671875,2.996882200241089,89.10692596435547,0.0,0.0,0.0,3.9739999771118164
14055,1,86133.8125,22.8799991607666,1349.2718505859375,1349.5255126953125,0.4292428195476532,10.662052154541016,0.12043346464633942,318.1891174316406,2.9957656860351562,89.1121826171875,0.0,0.0,0.0,3.9779999256134033
14086,1,86131.140625,22.8799991607666,1349.5255126953125,1349.5255126953125,0.4386971592903137,10.695286750793457,0.10122635960578918,318.13092041015625,2.971576452255249,89.1102066040039,0.0,0.0,0.0,3.9779999256134033
14115,1,86133.8125,22.8799991607666,1349.2718505859375,1349.5255126953125,0.4434243440628052,10.714278221130371,0.13964056968688965,318.0649108886719,3.000049114227295,89.0721664428711,0.0,0.0,0.0,3.9739999771118164
14146,1,86133.8125,22.8799991607666,1349.2718505859375,1349.5255126953125,0.3961525559425354,10.685791015625,0.1444423496723175,317.9980773925781,3.044013023376465,89.05376434326172,0.0,0.0,0.0,3.9739999771118164
14166,1,86133.8125,22.8799991607666,1349.2718505859375,1349.5255126953125,0.36306232213974,10.704781532287598,0.17672862112522125,317.9540100097656,3.0862019062042236,89.04341888427734,0.0,0.0,0.0,3.9779999256134033
14196,1,86133.8125,22.8799991607666,1349.2718505859375,1349.5255126953125,0.37724384665489197,10.68104362487793,0.12523524463176727,317.889892578125,3.107517719268799,89.03498077392578,0.0,0.0,0.0,3.9739999771118164
14226,1,86133.8125,22.8799991607666,1349.2718505859375,1349.5255126953125,0.4292428195476532,10.7095308303833,0.1348387897014618,317.8238830566406,3.0987861156463623,89.03487396240234,0.0,0.0,0.0,3.9739999771118164
14255,1,86133.8125,22.8799991607666,1349.2718505859375,1349.5255126953125,0.4292428195476532,10.643062591552734,0.10122635960578918,317.76910400390625,3.0480213165283203,89.0558853149414,0.0,0.0,0.0,3.9739999771118164
14286,1,86133.8125,22.8799991607666,1349.2718505859375,1349.5255126953125,0.42451563477516174,10.652557373046875,0.1481325477361679,317.71063232421875,3.0292186737060547,89.05734252929688,0.0,0.0,0.0,3.9739999771118164
14316,1,86133.8125,22.8799991607666,1349.2718505859375,1349.5255126953125,0.41033411026000977,10.67629623413086,0.11563169211149216,317.6482238769531,3.044426918029785,89.04594421386719,0.0,0.0,0.0,3.9739999771118164
14347,1,86133.8125,22.8799991607666,1349.2718505859375,1349.5255126953125,0.4434243440628052,10.700034141540527,0.1348387897014618,317.5884704589844,3.018495559692383,89.02025604248047,0.0,0.0,0.0,3.9739999771118164
14376,1,86133.8125,22.8799991607666,1349.2718505859375,1349.5255126953125,0.44815149903297424,10.700034141540527,0.1348387897014618,317.5273132324219,3.0155117511749268,89.01152038574219,0.0,0.0,0.0,3.9739999771118164
14405,1,86133.8125,22.8799991607666,1349.2718505859375,1349.5255126953125,0.44815149903297424,10.647809982299805,0.13003700971603394,317.46417236328125,3.006808280944824,89.0279312133789,0.0,0.0,0.0,3.9739999771118164
14436,1,86133.8125,22.8799991607666,1349.2718505859375,1349.5255126953125,0.4150612950325012,10.657304763793945,0.05801037326455116,317.40411376953125,2.9872422218322754,89.06515502929688,0.0,0.0,0.0,3.9739999771118164
14465,1,86133.8125,22.8799991607666,1349.2718505859375,1349.5255126953125,0.42451563477516174,10.714278221130371,0.09642458707094193,317.34722900390625,2.957670211791992,89.07839965820312,0.0,0.0,0.0,3.9779999256134033
14496,1,86133.8125,22.8799991607666,1349.2718505859375,1349.5255126953125,0.4197884500026703,10.68104362487793,0.13003700971603394,317.2810974121094,3.0052642822265625,89.06441497802734,0.0,0.0,0.0,3.9779999256134033
14526,1,86131.140625,22.8799991607666,1349.5255126953125,1349.5255126953125,0.47178739309310913,10.643062591552734,0.09162279963493347,317.2236633300781,2.9718704223632812,89.08271789550781,0.0,0.0,0.0,3.9700000286102295
14546,1,86131.140625,22.8799991607666,1349.5255126953125,1349.5255126953125,0.4056069254875183,10.742764472961426,0.13003700971603394,317.18231201171875,3.0107274055480957,89.0566177368164,0.0,0.0,0.0,3.9739999771118164
14576,1,86131.140625,22.8799991607666,1349.5255126953125,1349.5255126953125,0.43396997451782227,10.671547889709473,0.13003700971603394,317.121826171875,3.0089797973632812,89.0265884399414,0.0,0.0,0.0,3.9739999771118164
14605,1,86131.140625,22.8799991607666,1349.5255126953125,1349.5255126953125,0.41033411026000977,10.581341743469238,0.12523524463176727,317.06207275390625,3.036557674407959,89.0134048461914,0.0,0.0,0.0,3.9739999771118164
14636,1,86131.140625,22.8799991607666,1349.5255126953125,1349.5255126953125,0.3961525559425354,10.657304763793945,0.05801037326455116,317.00054931640625,3.0746662616729736,89.01018524169922,0.0,0.0,0.0,3.9739999771118164
14665,1,86131.140625,22.8799991607666,1349.5255126953125,1349.5255126953125,0.43396997451782227,10.657304763793945,0.1444423496723175,316.9387512207031,3.049961805343628,88.99781799316406,0.0,0.0,0.0,3.9739999771118164
14696,1,86131.140625,22.8799991607666,1349.5255126953125,1349.5255126953125,0.41033411026000977,10.562350273132324,0.10602813214063644,316.87896728515625,3.0256738662719727,89.00125122070312,0.0,0.0,0.0,3.9739999771118164
14725,1,86131.140625,22.8799991607666,1349.5255126953125,1349.5255126953125,0.43396997451782227,10.652557373046875,0.12523524463176727,316.8170471191406,3.003159523010254,88.99437713623047,0.0,0.0,0.0,3.9739999771118164
14745,1,86131.140625,22.8799991607666,1349.5255126953125,1349.5255126953125,0.4292428195476532,10.633565902709961,0.13003700971603394,316.7711181640625,3.027479410171509,88.99432373046875,0.0,0.0,0.0,3.9739999771118164
14800,1,86131.140625,22.8799991607666,1349.5255126953125,1349.5255126953125,0.4765145480632782,10.662052154541016,0.15289856493473053,316.72503662109375,3.01947021484375,88.9808349609375,0.0,0.0,0.0,3.9739999771118164
14828,1,86131.140625,22.8799991607666,1349.5255126953125,1349.5255126953125,0.48124176263809204,10.714278221130371,0.11563169211149216,316.6571350097656,2.9803154468536377,88.97532653808594,0.0,0.0,0.0,3.9700000286102295
14860,1,86131.140625,22.8799991607666,1349.5255126953125,1349.5255126953125,0.4434243440628052,10.685791015625,0.1108299046754837,316.58837890625,2.993293285369873,88.98542785644531,0.0,0.0,0.0,3.9739999771118164
14880,1,86133.8125,22.8799991607666,1349.2718505859375,1349.5255126953125,0.4150612950325012,10.690539360046387,0.12043346464633942,316.5445251464844,2.9976534843444824,88.99270629882812,0.0,0.0,0.0,3.9739999771118164
14900,1,86133.8125,22.8799991607666,1349.2718505859375,1349.5255126953125,0.4056069254875183,10.643062591552734,0.10602813214063644,316.5106506347656,2.9782156944274902,89.0054931640625,0.0,0.0,0.0,3.9779999256134033
14920,1,86133.8125,22.8799991607666,1349.2718505859375,1349.5255126953125,0.41033411026000977,10.761754989624023,0.10602813214063644,316.4649963378906,2.9965829849243164,89.01546478271484,0.0,0.0,0.0,3.9739999771118164
14940,1,86131.140625,22.8799991607666,1349.5255126953125,1349.5255126953125,0.36306232213974,10.62881851196289,0.1108299046754837,316.4241638183594,3.0092859268188477,89.012451171875,0.0,0.0,0.0,3.9779999256134033
14960,1,86131.140625,22.8799991607666,1349.5255126953125,1349.5255126953125,0.40087971091270447,10.67629623413086,0.08201925456523895,316.3852844238281,3.004354476928711,89.02635955810547,0.0,0.0,0.0,3.9779999256134033
14980,1,86131.140625,22.8799991607666,1349.5255126953125,1349.5255126953125,0.45760586857795715,10.68104362487793,0.1108299046754837,316.34552001953125,2.983309507369995,89.0277328491211,0.0,0.0,0.0,3.9779999256134033
15000,1,86131.140625,22.8799991607666,1349.5255126953125,1349.5255126953125,0.40087971091270447,10.647809982299805,0.11563169211149216,316.3056335449219,3.001477003097534,89.01043701171875,0.0,0.0,0.0,3.9779999256134033
15020,1,86131.140625,22.8799991607666,1349.5255126953125,1349.5255126953125,0.4056069254875183,10.600332260131836,0.12523524463176727,316.2620544433594,3.029789686203003,89.00834655761719,0.0,0.0,0.0,3.9800000190734863
15040,1,86131.140625,22.8799991607666,1349.5255126953125,1349.5255126953125,0.37724384665489197,10.7095308303833,0.11563169211149216,316.225830078125,3.026224374771118,88.99614715576172,0.0,0.0,0.0,3.9779999256134033
15060,1,86133.8125,22.8799991607666,1349.2718505859375,1349.5255126953125,0.4150612950325012,10.67629623413086,0.11563169211149216,316.18218994140625,3.035107374191284,88.98133087158203,0.0,0.0,0.0,3.9779999256134033
15080,1,86131.140625,22.8799991607666,1349.5255126953125,1349.5255126953125,0.40087971091270447,10.62407112121582,0.06761392205953598,316.14306640625,3.027648687362671,88.99795532226562,0.0,0.0,0.0,3.9779999256134033
15100,1,86131.140625,22.8799991607666,1349.5255126953125,1349.5255126953125,0.41033411026000977,10.62881851196289,0.10602813214063644,316.10400390625,3.002926826477051,88.9872055053711,0.0,0.0,0.0,3.9779999256134033
15115,1,86131.140625,22.8799991607666,1349.5255126953125,1349.5255126953125,0.4434243440628052,10.633565902709961,0.10122635960578918,316.06201171875,2.9729459285736084,89.00700378417969,0.0,0.0,0.0,3.9739999771118164
15176,1,86131.140625,22.8799991607666,1349.5255126953125,1349.5255126953125,0.45760586857795715,10.657304763793945,0.13964056968688965,316.0047607421875,2.953005790710449,89.00467681884766,0.0,0.0,0.0,3.9779999256134033
15205,1,86131.140625,22.8799991607666,1349.5255126953125,1349.5255126953125,0.4150612950325012,10.62881851196289,0.09162279963493347,315.94964599609375,2.9340083599090576,89.00640106201172,0.0,0.0,0.0,3.9779999256134033
15230,1,86131.140625,22.8799991607666,1349.5255126953125,1349.5255126953125,0.4434243440628052,10.62881851196289,0.1108299046754837,315.9096374511719,2.9066998958587646,89.00275421142578,0.0,0.0,0.0,3.9739999771118164
15250,1,86131.140625,22.8799991607666,1349.5255126953125,1349.5255126953125,0.45760586857795715,10.68104362487793,0.12523524463176727,315.8682861328125,2.8956446647644043,88.97318267822266,0.0,0.0,0.0,3.9779999256134033
15270,1,86131.140625,22.8799991607666,1349.5255126953125,1349.5255126953125,0.45760586857795715,10.671547889709473,0.10602813214063644,315.8266296386719,2.8826475143432617,88.990966796875,0.0,0.0,0.0,3.9739999771118164
15290,1,86133.8125,22.8799991607666,1349.2718505859375,1349.5255126953125,0.47178739309310913,10.586089134216309,0.13964056968688965,315.7860412597656,2.854140043258667,88.98741912841797,0.0,0.0,0.0,3.9779999256134033
15310,1,86133.8125,22.8799991607666,1349.2718505859375,1349.5255126953125,0.4434243440628052,10.609827041625977,0.10122635960578918,315.7437438964844,2.85347843170166,88.98056030273438,0.0,0.0,0.0,3.9739999771118164
15330,1,86133.8125,22.8799991607666,1349.2718505859375,1349.5255126953125,0.4150612950325012,10.61932373046875,0.12043346464633942,315.69873046875,2.871602773666382,88.9582748413086,0.0,0.0,0.0,3.9739999771118164
15350,1,86133.8125,22.8799991607666,1349.2718505859375,1349.5255126953125,0.41033411026000977,10.662052154541016,0.09642458707094193,315.6539001464844,2.900228500366211,88.96296691894531,0.0,0.0,0.0,3.9739999771118164
15370,1,86133.8125,22.8799991607666,1349.2718505859375,1349.5255126953125,0.4150612950325012,10.643062591552734,0.11563169211149216,315.608154296875,2.9177088737487793,88.95147705078125,0.0,0.0,0.0,3.9739999771118164
15390,1,86133.8125,22.8799991607666,1349.2718505859375,1349.5255126953125,0.41033411026000977,10.638313293457031,0.12043346464633942,315.56121826171875,2.960662364959717,88.95603942871094,0.0,0.0,0.0,3.9739999771118164
15410,1,86133.8125,22.8799991607666,1349.2718505859375,1349.5255126953125,0.4150612950325012,10.666800498962402,0.08682102710008621,315.5226135253906,2.946368455886841,88.96273803710938,0.0,0.0,0.0,3.9739999771118164
15430,1,86133.8125,22.8799991607666,1349.2718505859375,1349.5255126953125,0.42451563477516174,10.671547889709473,0.12523524463176727,315.4822998046875,2.9424307346343994,88.96156311035156,0.0,0.0,0.0,3.9779999256134033
15450,1,86133.8125,22.8799991607666,1349.2718505859375,1349.5255126953125,0.40087971091270447,10.68104362487793,0.1108299046754837,315.43902587890625,2.95674204826355,88.96548461914062,0.0,0.0,0.0,3.9779999256134033
15470,1,86131.140625,22.8799991607666,1349.5255126953125,1349.5255126953125,0.4150612950325012,10.719025611877441,0.10602813214063644,315.3975524902344,2.9626595973968506,88.98040008544922,0.0,0.0,0.0,3.9779999256134033
15485,1,86131.140625,22.8799991607666,1349.5255126953125,1349.5255126953125,0.4056069254875183,10.671547889709473,0.13003700971603394,315.36517333984375,2.9381492137908936,88.9691390991211,0.0,0.0,0.0,3.9779999256134033
15546,1,86131.140625,22.8799991607666,1349.5255126953125,1349.5255126953125,0.4434243440628052,10.695286750793457,0.1108299046754837,315.30218505859375,2.969834089279175,88.98149871826172,0.0,0.0,0.0,3.9779999256134033
15580,1,86131.140625,22.8799991607666,1349.5255126953125,1349.5255126953125,0.4292428195476532,10.647809982299805,0.09642458707094193,315.2401428222656,2.9701383113861084,88.986328125,0.0,0.0,0.0,3.9779999256134033
15600,1,86131.140625,22.8799991607666,1349.5255126953125,1349.5255126953125,0.4292428195476532,10.614575386047363,0.08682102710008621,315.1998291015625,2.957078695297241,88.98783874511719,0.0,0.0,0.0,3.9779999256134033
15620,1,86131.140625,22.8799991607666,1349.5255126953125,1349.5255126953125,0.4434243440628052,10.647809982299805,0.053208597004413605,315.16033935546875,2.9429454803466797,89.0199203491211,0.0,0.0,0.0,3.9779999256134033
15640,1,86131.140625,22.8799991607666,1349.5255126953125,1349.5255126953125,0.42451563477516174,10.68104362487793,0.10122635960578918,315.12237548828125,2.949683904647827,89.01334381103516,0.0,0.0,0.0,3.9800000190734863
15660,1,86131.140625,22.8799991607666,1349.5255126953125,1349.5255126953125,0.41033411026000977,10.704781532287598,0.09642458707094193,315.0827331542969,2.965513229370117,89.01258850097656,0.0,0.0,0.0,3.9779999256134033
15680,1,86131.140625,22.8799991607666,1349.5255126953125,1349.5255126953125,0.4150612950325012,10.62407112121582,0.1481325477361679,315.0405578613281,2.9707555770874023,88.99746704101562,0.0,0.0,0.0,3.9779999256134033
15700,1,86131.140625,22.8799991607666,1349.5255126953125,1349.5255126953125,0.48124176263809204,10.62881851196289,0.1108299046754837,315.0014953613281,2.9350991249084473,88.99958801269531,0.0,0.0,0.0,3.9779999256134033
15720,1,86131.140625,22.8799991607666,1349.5255126953125,1349.5255126953125,0.4623330235481262,10.67629623413086,0.15766456723213196,314.964111328125,2.8860137462615967,88.97953033447266,0.0,0.0,0.0,3.9739999771118164
15740,1,86131.140625,22.8799991607666,1349.5255126953125,1349.5255126953125,0.4386971592903137,10.633565902709961,0.10122635960578918,314.92620849609375,2.854461431503296,88.9754409790039,0.0,0.0,0.0,3.9779999256134033
15760,1,86131.140625,22.8799991607666,1349.5255126953125,1349.5255126953125,0.4434243440628052,10.704781532287598,0.13003700971603394,314.8832092285156,2.857123374938965,88.96104431152344,0.0,0.0,0.0,3.9779999256134033
15780,1,86131.140625,22.8799991607666,1349.5255126953125,1349.5255126953125,0.41033411026000977,10.662052154541016,0.1108299046754837,314.84423828125,2.861884832382202,88.95693969726562,0.0,0.0,0.0,3.9779999256134033
15800,1,86131.140625,22.8799991607666,1349.5255126953125,1349.5255126953125,0.41033411026000977,10.685791015625,0.12523524463176727,314.798828125,2.8694381713867188,88.93975067138672,0.0,0.0,0.0,3.9779999256134033
15820,1,86131.140625,22.8799991607666,1349.5255126953125,1349.5255126953125,0.40087971091270447,10.609827041625977,0.12523524463176727,314.7565612792969,2.8688793182373047,88.92242431640625,0.0,0.0,0.0,3.9779999256134033
15840,1,86131.140625,22.8799991607666,1349.5255126953125,1349.5255126953125,0.40087971091270447,10.761754989624023,0.13003700971603394,314.7117919921875,2.8977954387664795,88.90511322021484,0.0,0.0,0.0,3.9779999256134033
15855,1,86131.140625,22.8799991607666,1349.5255126953125,1349.5255126953125,0.41033411026000977,10.666800498962402,0.12523524463176727,314.6674499511719,2.937147378921509,88.8996353149414,0.0,0.0,0.0,3.9779999256134033
15916,1,86133.8125,22.8799991607666,1349.2718505859375,1349.5255126953125,0.41033411026000977,10.662052154541016,0.13964056968688965,314.6100769042969,2.952838182449341,88.88753509521484,0.0,0.0,0.0,3.9779999256134033
15950,1,86133.8125,22.8799991607666,1349.2718505859375,1349.5255126953125,0.3961525559425354,10.652557373046875,0.15289856493473053,314.544921875,2.9373302459716797,88.89028930664062,0.0,0.0,0.0,3.9779999256134033
15970,1,86133.8125,22.8799991607666,1349.2718505859375,1349.5255126953125,0.40087971091270447,10.576594352722168,0.12523524463176727,314.4973449707031,2.951289415359497,88.88500213623047,0.0,0.0,0.0,3.9779999256134033
15990,1,86133.8125,22.8799991607666,1349.2718505859375,1349.5255126953125,0.42451563477516174,10.7095308303833,0.13003700971603394,314.4552001953125,2.958962917327881,88.87968444824219,0.0,0.0,0.0,3.9779999256134033
16010,1,86133.8125,22.8799991607666,1349.2718505859375,1349.5255126953125,0.4197884500026703,10.633565902709961,0.08201925456523895,314.41790771484375,2.946869373321533,88.89213562011719,0.0,0.0,0.0,3.9779999256134033
16030,1,86133.8125,22.8799991607666,1349.2718505859375,1349.5255126953125,0.44815149903297424,10.657304763793945,0.10122635960578918,314.3770446777344,2.9292001724243164,88.91004943847656,0.0,0.0,0.0,3.9779999256134033
16050,1,86133.8125,22.8799991607666,1349.2718505859375,1349.5255126953125,0.43396997451782227,10.733268737792969,0.09642458707094193,314.3367004394531,2.905608892440796,88.91627502441406,0.0,0.0,0.0,3.9779999256134033
16070,1,86133.8125,22.8799991607666,1349.2718505859375,1349.5255126953125,0.4434243440628052,10.733268737792969,0.1108299046754837,314.29736328125,2.8807992935180664,88.91997528076172,0.0,0.0,0.0,3.9779999256134033
16090,1,86133.8125,22.8799991607666,1349.2718505859375,1349.5255126953125,0.4150612950325012,10.662052154541016,0.12043346464633942,314.2551574707031,2.8840391635894775,88.91971588134766,0.0,0.0,0.0,3.9779999256134033
16110,1,86133.8125,22.8799991607666,1349.2718505859375,1349.5255126953125,0.4150612950325012,10.67629623413086,0.10122635960578918,314.212158203125,2.904690980911255,88.91988372802734,0.0,0.0,0.0,3.9779999256134033
16130,1,86133.8125,22.8799991607666,1349.2718505859375,1349.5255126953125,0.43396997451782227,10.62407112121582,0.11563169211149216,314.1712341308594,2.8991734981536865,88.92323303222656,0.0,0.0,0.0,3.9779999256134033
16150,1,86133.8125,22.8799991607666,1349.2718505859375,1349.5255126953125,0.4292428195476532,10.666800498962402,0.08201925456523895,314.12841796875,2.8979852199554443,88.92623138427734,0.0,0.0,0.0,3.9779999256134033
16170,1,86131.140625,22.8799991607666,1349.5255126953125,1349.5255126953125,0.44815149903297424,10.733268737792969,0.09642458707094193,314.0906066894531,2.862062692642212,88.93704223632812,0.0,0.0,0.0,3.9779999256134033
16190,1,86131.140625,22.8799991607666,1349.5255126953125,1349.5255126953125,0.41033411026000977,10.666800498962402,0.08682102710008621,314.0502624511719,2.8581440448760986,88.94677734375,0.0,0.0,0.0,3.9779999256134033
16210,1,86131.140625,22.8799991607666,1349.5255126953125,1349.5255126953125,0.41033411026000977,10.671547889709473,0.08201925456523895,314.0077209472656,2.863837242126465,88.95733642578125,0.0,0.0,0.0,3.9800000190734863
16225,1,86133.8125,22.8799991607666,1349.2718505859375,1349.5255126953125,0.39142537117004395,10.657304763793945,0.09642458707094193,313.9693603515625,2.8599066734313965,88.94376373291016,0.0,0.0,0.0,3.9779999256134033
16286,1,86133.8125,22.8799991607666,1349.2718505859375,1349.5255126953125,0.3961525559425354,10.671547889709473,0.1444423496723175,313.90460205078125,2.889920473098755,88.9058609008789,0.0,0.0,0.0,3.9739999771118164
16320,1,86133.8125,22.8799991607666,1349.2718505859375,1349.5255126953125,0.43396997451782227,10.657304763793945,0.16243058443069458,313.83880615234375,2.891202926635742,88.89503479003906,0.0,0.0,0.0,3.9700000286102295
16340,1,86133.8125,22.8799991607666,1349.2718505859375,1349.5255126953125,0.42451563477516174,10.704781532287598,0.09642458707094193,313.79534912109375,2.8986690044403076,88.88522338867188,0.0,0.0,0.0,3.9739999771118164
16360,1,86133.8125,22.8799991607666,1349.2718505859375,1349.5255126953125,0.41033411026000977,10.700034141540527,0.1481325477361679,313.7558898925781,2.8772311210632324,88.87591552734375,0.0,0.0,0.0,3.9739999771118164
16380,1,86133.8125,22.8799991607666,1349.2718505859375,1349.5255126953125,0.3961525559425354,10.638313293457031,0.13003700971603394,313.7153015136719,2.904080629348755,88.84947204589844,0.0,0.0,0.0,3.9739999771118164
16400,1,86131.140625,22.8799991607666,1349.5255126953125,1349.5255126953125,0.3866981863975525,10.719025611877441,0.16243058443069458,313.6676940917969,2.936720132827759,88.83060455322266,0.0,0.0,0.0,3.9739999771118164
16420,1,86131.140625,22.8799991607666,1349.5255126953125,1349.5255126953125,0.4292428195476532,10.728520393371582,0.13003700971603394,313.6283264160156,2.924777030944824,88.83132934570312,0.0,0.0,0.0,3.9739999771118164
16440,1,86131.140625,22.8799991607666,1349.5255126953125,1349.5255126953125,0.4292428195476532,10.643062591552734,0.13964056968688965,313.58526611328125,2.911266565322876,88.82454681396484,0.0,0.0,0.0,3.9779999256134033
16460,1,86133.8125,22.8799991607666,1349.2718505859375,1349.5255126953125,0.44815149903297424,10.695286750793457,0.1108299046754837,313.5384826660156,2.9232981204986572,88.8270492553711,0.0,0.0,0.0,3.9779999256134033
16480,1,86133.8125,22.8799991607666,1349.2718505859375,1349.5255126953125,0.4528786838054657,10.652557373046875,0.09642458707094193,313.49688720703125,2.894073486328125,88.82389831542969,0.0,0.0,0.0,3.9779999256134033
16500,1,86133.8125,22.8799991607666,1349.2718505859375,1349.5255126953125,0.40087971091270447,10.647809982299805,0.11563169211149216,313.45611572265625,2.8782687187194824,88.83675384521484,0.0,0.0,0.0,3.9779999256134033
16520,1,86133.8125,22.8799991607666,1349.2718505859375,1349.5255126953125,0.4386971592903137,10.62881851196289,0.12523524463176727,313.41180419921875,2.866083860397339,88.84805297851562,0.0,0.0,0.0,3.9779999256134033
16540,1,86133.8125,22.8799991607666,1349.2718505859375,1349.5255126953125,0.4150612950325012,10.728520393371582,0.10602813214063644,313.3725891113281,2.844952344894409,88.85630798339844,0.0,0.0,0.0,3.9800000190734863
16560,1,86131.140625,22.8799991607666,1349.5255126953125,1349.5255126953125,0.40087971091270447,10.62407112121582,0.10602813214063644,313.3316345214844,2.8335046768188477,88.85646057128906,0.0,0.0,0.0,3.9800000190734863
16580,1,86131.140625,22.8799991607666,1349.5255126953125,1349.5255126953125,0.4150612950325012,10.719025611877441,0.1108299046754837,313.29052734375,2.834697723388672,88.86078643798828,0.0,0.0,0.0,3.9779999256134033
16595,1,86133.8125,22.8799991607666,1349.2718505859375,1349.5255126953125,0.48124176263809204,10.68104362487793,0.1348387897014618,313.25054931640625,2.803705930709839,88.86309814453125,0.0,0.0,0.0,3.9779999256134033
16656,1,86131.140625,22.8799991607666,1349.5255126953125,1349.5255126953125,0.4434243440628052,10.657304763793945,0.09162279963493347,313.18536376953125,2.8007705211639404,88.87187194824219,0.0,0.0,0.0,3.9779999256134033
16690,1,86131.140625,22.8799991607666,1349.5255126953125,1349.5255126953125,0.4434243440628052,10.68104362487793,0.1348387897014618,313.11541748046875,2.8265891075134277,88.8692855834961,0.0,0.0,0.0,3.9779999256134033
16710,1,86133.8125,22.8799991607666,1349.2718505859375,1349.5255126953125,0.3583351671695709,10.67629623413086,0.09642458707094193,313.07562255859375,2.853001356124878,88.86441802978516,0.0,0.0,0.0,3.9779999256134033
16730,1,86133.8125,22.8799991607666,1349.2718505859375,1349.5255126953125,0.3725166916847229,10.695286750793457,0.08201925456523895,313.0296325683594,2.8826045989990234,88.86526489257812,0.0,0.0,0.0,3.9779999256134033
16750,1,86133.8125,22.8799991607666,1349.2718505859375,1349.5255126953125,0.39142537117004395,10.666800498962402,0.10122635960578918,312.9851989746094,2.895559310913086,88.85432434082031,0.0,0.0,0.0,3.9779999256134033
16770,1,86133.8125,22.8799991607666,1349.2718505859375,1349.5255126953125,0.3961525559425354,10.719025611877441,0.11563169211149216,312.9451904296875,2.9018406867980957,88.85991668701172,0.0,0.0,0.0,3.9779999256134033
16790,1,86133.8125,22.8799991607666,1349.2718505859375,1349.5255126953125,0.42451563477516174,10.7095308303833,0.12523524463176727,312.9039306640625,2.905651807785034,88.86112976074219,0.0,0.0,0.0,3.9779999256134033
16810,1,86133.8125,22.8799991607666,1349.2718505859375,1349.5255126953125,0.3866981863975525,10.647809982299805,0.09162279963493347,312.8582458496094,2.9280614852905273,88.84899139404297,0.0,0.0,0.0,3.9800000190734863
16830,1,86131.140625,22.8799991607666,1349.5255126953125,1349.5255126953125,0.4056069254875183,10.704781532287598,0.09642458707094193,312.8149108886719,2.9293079376220703,88.84819030761719,0.0,0.0,0.0,3.9779999256134033
16850,1,86133.8125,22.8799991607666,1349.2718505859375,1349.5255126953125,0.41033411026000977,10.695286750793457,0.13964056968688965,312.7698059082031,2.9687294960021973,88.8273696899414,0.0,0.0,0.0,3.9739999771118164
16870,1,86133.8125,22.8799991607666,1349.2718505859375,1349.5255126953125,0.4197884500026703,10.595584869384766,0.1348387897014618,312.7252197265625,2.9802985191345215,88.80634307861328,0.0,0.0,0.0,3.9779999256134033
16890,1,86133.8125,22.8799991607666,1349.2718505859375,1349.5255126953125,0.4150612950325012,10.685791015625,0.13003700971603394,312.6829833984375,2.9713900089263916,88.79703521728516,0.0,0.0,0.0,3.9779999256134033
16910,1,86133.8125,22.8799991607666,1349.2718505859375,1349.5255126953125,0.49069610238075256,10.714278221130371,0.12043346464633942,312.63922119140625,2.935314655303955,88.78878784179688,0.0,0.0,0.0,3.9779999256134033
16930,1,86133.8125,22.8799991607666,1349.2718505859375,1349.5255126953125,0.4528786838054657,10.714278221130371,0.0772174820303917,312.5953063964844,2.904759168624878,88.80915069580078,0.0,0.0,0.0,3.9739999771118164
16950,1,86133.8125,22.8799991607666,1349.2718505859375,1349.5255126953125,0.5001504421234131,10.61932373046875,0.09642458707094193,312.5533447265625,2.866543769836426,88.82406616210938,0.0,0.0,0.0,3.9779999256134033
16965,1,86133.8125,22.8799991607666,1349.2718505859375,1349.5255126953125,0.40087971091270447,10.67629623413086,0.10122635960578918,312.50543212890625,2.8879575729370117,88.82836151123047,0.0,0.0,0.0,3.9779999256134033
16986,1,86133.8125,22.8799991607666,1349.2718505859375,1349.5255126953125,0.4386971592903137,10.67629623413086,0.13964056968688965,312.4619445800781,2.8721907138824463,88.81837463378906,0.0,0.0,0.0,3.9779999256134033
17065,1,86133.8125,22.8799991607666,1349.2718505859375,1349.5255126953125,0.4765145480632782,10.633565902709961,0.11563169211149216,312.3275451660156,2.8486316204071045,88.82215118408203,0.0,0.0,0.0,3.9779999256134033
17126,1,86133.8125,22.8799991607666,1349.2718505859375,1349.5255126953125,0.3819710314273834,10.586089134216309,0.08682102710008621,312.2579040527344,2.8646938800811768,88.8278579711914,0.0,0.0,0.0,3.9739999771118164
17185,1,86133.8125,22.8799991607666,1349.2718505859375,1349.5255126953125,0.3725166916847229,10.695286750793457,0.06281214952468872,312.1749572753906,2.920448064804077,88.84534454345703,0.0,0.0,0.0,3.9779999256134033
17250,1,86133.8125,22.8799991607666,1349.2718505859375,1349.5255126953125,0.4197884500026703,10.68104362487793,0.10602813214063644,312.1305847167969,2.9249343872070312,88.829345703125,0.0,0.0,0.0,3.9779999256134033
17270,1,86133.8125,22.8799991607666,1349.2718505859375,1349.5255126953125,0.42451563477516174,10.700034141540527,0.1348387897014618,312.0902404785156,2.892380952835083,88.81778717041016,0.0,0.0,0.0,3.9779999256134033
17290,1,86133.8125,22.8799991607666,1349.2718505859375,1349.5255126953125,0.39142537117004395,10.704781532287598,0.1348387897014618,312.04278564453125,2.910317897796631,88.81668853759766,0.0,0.0,0.0,3.9739999771118164
17310,1,86133.8125,22.8799991607666,1349.2718505859375,1349.5255126953125,0.39142537117004395,10.62881851196289,0.1108299046754837,312.0009460449219,2.91817569732666,88.81041717529297,0.0,0.0,0.0,3.9739999771118164
17330,1,86133.8125,22.8799991607666,1349.2718505859375,1349.5255126953125,0.3961525559425354,10.638313293457031,0.1108299046754837,311.9559326171875,2.927384614944458,88.81351470947266,0.0,0.0,0.0,3.9700000286102295
17350,1,86133.8125,22.8799991607666,1349.2718505859375,1349.5255126953125,0.4150612950325012,10.695286750793457,0.1444423496723175,311.9169616699219,2.9075734615325928,88.80628967285156,0.0,0.0,0.0,3.9739999771118164
17370,1,86133.8125,22.8799991607666,1349.2718505859375,1349.5255126953125,0.4150612950325012,10.671547889709473,0.11563169211149216,311.87921142578125,2.8645620346069336,88.80033111572266,0.0,0.0,0.0,3.9739999771118164
17390,1,86133.8125,22.8799991607666,1349.2718505859375,1349.5255126953125,0.44815149903297424,10.638313293457031,0.09642458707094193,311.8365783691406,2.8713786602020264,88.79981994628906,0.0,0.0,0.0,3.9779999256134033
17410,1,86131.140625,22.8799991607666,1349.5255126953125,1349.5255126953125,0.4292428195476532,10.666800498962402,0.12523524463176727,311.7928771972656,2.859525442123413,88.80743408203125,0.0,0.0,0.0,3.9739999771118164
17430,1,86131.140625,22.8799991607666,1349.5255126953125,1349.5255126953125,0.4528786838054657,10.7095308303833,0.08682102710008621,311.7502746582031,2.856576442718506,88.8125991821289,0.0,0.0,0.0,3.9739999771118164
17450,1,86131.140625,22.8799991607666,1349.5255126953125,1349.5255126953125,0.4434243440628052,10.643062591552734,0.09162279963493347,311.7088317871094,2.8551626205444336,88.80732727050781,0.0,0.0,0.0,3.9739999771118164
17470,1,86131.140625,22.8799991607666,1349.5255126953125,1349.5255126953125,0.4386971592903137,10.652557373046875,0.1348387897014618,311.66455078125,2.852999687194824,88.79358673095703,0.0,0.0,0.0,3.9739999771118164
17490,1,86133.8125,22.8799991607666,1349.2718505859375,1349.5255126953125,0.4056069254875183,10.62881851196289,0.08682102710008621,311.6226501464844,2.8436341285705566,88.79228210449219,0.0,0.0,0.0,3.9779999256134033
17515,1,86131.140625,22.8799991607666,1349.5255126953125,1349.5255126953125,0.4150612950325012,10.662052154541016,0.11563169211149216,311.53460693359375,2.8589563369750977,88.76585388183594,0.0,0.0,0.0,3.9739999771118164
17580,1,86131.140625,22.8799991607666,1349.5255126953125,1349.5255126953125,0.4056069254875183,10.657304763793945,0.12523524463176727,311.4918212890625,2.8675320148468018,88.75081634521484,0.0,0.0,0.0,3.9779999256134033
17600,1,86131.140625,22.8799991607666,1349.5255126953125,1349.5255126953125,0.41033411026000977,10.657304763793945,0.12523524463176727,311.4466247558594,2.8681697845458984,88.74810028076172,0.0,0.0,0.0,3.9700000286102295
17620,1,86131.140625,22.8799991607666,1349.5255126953125,1349.5255126953125,0.39142537117004395,10.68104362487793,0.12043346464633942,311.40325927734375,2.8790979385375977,88.75611877441406,0.0,0.0,0.0,3.9779999256134033
17640,1,86131.140625,22.8799991607666,1349.5255126953125,1349.5255126953125,0.43396997451782227,10.67629623413086,0.12523524463176727,311.3586120605469,2.860747814178467,88.76808166503906,0.0,0.0,0.0,3.9779999256134033
17660,1,86131.140625,22.8799991607666,1349.5255126953125,1349.5255126953125,0.4056069254875183,10.638313293457031,0.08682102710008621,311.31793212890625,2.8625071048736572,88.7838363647461,0.0,0.0,0.0,3.9739999771118164
